gyro_x,gyro_y,gyro_z,acc_x,acc_y,acc_z
-1.3428699,1.0631051999999999,0.50357616,-0.66015625,-10.003906,1.21875
-1.5107286,1.1750112,0.0,-0.66015625,-10.003906,1.21875
-1.2309641000000002,1.1750112,-0.27976456,-0.66015625,-10.003906,1.21875
-1.2309641000000002,1.1750112,-0.27976456,-0.66015625,-10.003906,1.21875
-1.0631051999999999,0.83929366,-0.72738785,-0.66015625,-10.003906,1.21875
-1.0631051999999999,0.83929366,-0.72738785,-0.66015625,-10.003906,1.21875
-0.78334075,0.16785873,-1.286917,-0.66015625,-10.003906,1.21875
-0.61548203,0.05595291,-1.2309641000000002,-0.66015625,-10.003906,1.21875
-0.61548203,0.05595291,-1.2309641000000002,-0.8515625,-9.9296875,1.296875
-0.22381164,0.22381164,-0.83929366,-0.8515625,-9.9296875,1.296875
-0.22381164,0.22381164,-0.83929366,-0.8515625,-9.9296875,1.296875
0.22381164,-0.05595291,-1.0071523,-0.8515625,-9.9296875,1.296875
0.78334075,-1.2309641000000002,-0.89524657,-0.8515625,-9.9296875,1.296875
0.78334075,-1.2309641000000002,-0.89524657,-0.8515625,-9.9296875,1.296875
1.0071523,-0.50357616,-0.89524657,-0.8515625,-9.9296875,1.296875
1.0071523,-0.50357616,-0.89524657,-0.8515625,-9.9296875,1.296875
1.1750112,-0.44762328,-0.27976456,-0.8515625,-9.9296875,1.296875
1.6226344,-0.44762328,0.50357616,-0.8515625,-9.9296875,1.296875
1.6226344,-0.44762328,0.50357616,-0.8515625,-9.9296875,1.296875
1.9583519,-0.67143494,0.72738785,-0.8515625,-9.9296875,1.296875
1.9583519,-0.67143494,0.72738785,-0.8515625,-9.8515625,1.3359375
2.517881,-0.50357616,1.0071523,-0.8515625,-9.8515625,1.3359375
2.9655042000000003,-1.1750112,1.3428699,-0.8515625,-9.8515625,1.3359375
2.9655042000000003,-1.1750112,1.3428699,-0.8515625,-9.8515625,1.3359375
2.7976456,-1.4547757,1.4547757,-0.8515625,-9.8515625,1.3359375
2.7976456,-1.4547757,1.4547757,-0.8515625,-9.8515625,1.3359375
2.9095514,-1.5666815,1.286917,-0.8515625,-9.8515625,1.3359375
2.9095514,-1.4547757,1.2309641000000002,-0.8515625,-9.8515625,1.3359375
2.9095514,-1.4547757,1.2309641000000002,-0.8515625,-9.8515625,1.3359375
3.0214572,-1.6785873,1.1190583,-0.8515625,-9.8515625,1.3359375
3.0214572,-1.6785873,1.1190583,-0.69921875,-9.855469,1.1445312
3.3012216,-1.5107286,1.0071523,-0.69921875,-9.855469,1.1445312
3.3012216,-1.5107286,1.0071523,-0.69921875,-9.855469,1.1445312
3.07741,-1.2309641000000002,0.89524657,-0.69921875,-9.855469,1.1445312
3.07741,-1.2309641000000002,0.89524657,-0.69921875,-9.855469,1.1445312
3.07741,-1.2309641000000002,0.89524657,-0.69921875,-9.855469,1.1445312
3.1893158,-0.72738785,0.89524657,-0.69921875,-9.855469,1.1445312
2.7416925,0.11190582,1.1750112,-0.69921875,-9.855469,1.1445312
2.7416925,0.11190582,1.1750112,-0.69921875,-9.855469,1.1445312
2.6857398,0.44762328,1.2309641000000002,-0.69921875,-9.855469,1.1445312
2.6857398,0.44762328,1.2309641000000002,-0.66015625,-9.8125,0.9140625
2.4619281,1.0631051999999999,1.0071523,-0.66015625,-9.8125,0.9140625
2.1262105,1.7904931,1.2309641000000002,-0.66015625,-9.8125,0.9140625
2.1262105,1.7904931,1.2309641000000002,-0.66015625,-9.8125,0.9140625
1.6785873,2.573834,1.1750112,-0.66015625,-9.8125,0.9140625
1.6785873,2.573834,1.1750112,-0.66015625,-9.8125,0.9140625
1.6226344,2.9095514,0.67143494,-0.66015625,-9.8125,0.9140625
1.6226344,2.9095514,0.67143494,-0.66015625,-9.8125,0.9140625
1.3988228,2.6297867000000004,-0.67143494,-0.66015625,-9.8125,0.9140625
0.78334075,2.8535984,-0.33571747,-0.66015625,-9.8125,0.9140625
0.78334075,2.8535984,-0.33571747,-0.66015625,-9.8125,0.9140625
0.16785873,3.07741,0.16785873,-0.66015625,-9.8125,0.9140625
0.16785873,3.07741,0.16785873,-0.8125,-9.738281,0.953125
0.50357616,2.0702577,-0.44762328,-0.8125,-9.738281,0.953125
0.33571747,1.8464459999999998,-0.83929366,-0.8125,-9.738281,0.953125
0.33571747,1.8464459999999998,-0.83929366,-0.8125,-9.738281,0.953125
0.11190582,1.4547757,-0.89524657,-0.8125,-9.738281,0.953125
0.11190582,1.4547757,-0.89524657,-0.8125,-9.738281,0.953125
-0.39167038,1.1190583,-0.11190582,-0.8125,-9.738281,0.953125
-0.44762328,0.5595291,0.39167038,-0.8125,-9.738281,0.953125
-0.44762328,0.5595291,0.39167038,-0.8125,-9.738281,0.953125
-0.50357616,0.78334075,0.33571747,-0.8125,-9.738281,0.953125
-0.50357616,0.78334075,0.33571747,-0.8125,-9.890625,1.1054688
-0.39167038,0.83929366,0.67143494,-0.8125,-9.890625,1.1054688
-0.50357616,1.0071523,1.1750112,-0.8125,-9.890625,1.1054688
-0.50357616,1.0071523,1.1750112,-0.8125,-9.890625,1.1054688
-0.50357616,1.1190583,1.3428699,-0.8125,-9.890625,1.1054688
-0.50357616,1.1190583,1.3428699,-0.8125,-9.890625,1.1054688
-0.33571747,1.5107286,1.3428699,-0.8125,-9.890625,1.1054688
0.0,1.5107286,1.7904931,-0.8125,-9.890625,1.1054688
0.0,1.5107286,1.7904931,-0.8125,-9.890625,1.1054688
-0.16785873,1.1190583,2.0702577,-0.8125,-9.890625,1.1054688
-0.16785873,1.1190583,2.0702577,-0.77734375,-9.855469,1.1054688
0.11190582,0.72738785,1.7345401999999999,-0.77734375,-9.855469,1.1054688
0.61548203,0.89524657,1.6785873,-0.77734375,-9.855469,1.1054688
0.61548203,0.89524657,1.6785873,-0.77734375,-9.855469,1.1054688
-0.05595291,0.44762328,2.1262105,-0.77734375,-9.855469,1.1054688
-0.05595291,0.44762328,2.1262105,-0.77734375,-9.855469,1.1054688
0.44762328,-0.16785873,1.7904931,-0.77734375,-9.855469,1.1054688
0.61548203,-0.67143494,1.2309641000000002,-0.77734375,-9.855469,1.1054688
0.61548203,-0.67143494,1.2309641000000002,-0.77734375,-9.855469,1.1054688
0.33571747,-0.89524657,1.0071523,-0.77734375,-9.855469,1.1054688
0.33571747,-0.89524657,1.0071523,-0.77734375,-9.855469,1.1054688
0.67143494,-0.83929366,1.0071523,-0.69921875,-9.855469,1.1835938
-0.05595291,-1.1750112,1.3988228,-0.69921875,-9.855469,1.1835938
-0.05595291,-1.1750112,1.3988228,-0.69921875,-9.855469,1.1835938
-0.33571747,-1.6785873,0.89524657,-0.69921875,-9.855469,1.1835938
-0.33571747,-1.6785873,0.89524657,-0.69921875,-9.855469,1.1835938
-0.05595291,-1.8464459999999998,0.89524657,-0.69921875,-9.855469,1.1835938
0.33571747,-2.1262105,0.22381164,-0.69921875,-9.855469,1.1835938
0.33571747,-2.1262105,0.22381164,-0.69921875,-9.855469,1.1835938
0.5595291,-1.6226344,0.33571747,-0.69921875,-9.855469,1.1835938
0.5595291,-1.6226344,0.33571747,-0.69921875,-9.855469,1.1835938
-0.05595291,-1.5107286,0.89524657,-0.66015625,-9.894531,1.1445312
0.11190582,-2.517881,1.2309641000000002,-0.66015625,-9.894531,1.1445312
0.11190582,-2.517881,1.2309641000000002,-0.66015625,-9.894531,1.1445312
0.83929366,-2.6297867000000004,0.61548203,-0.66015625,-9.894531,1.1445312
0.83929366,-2.6297867000000004,0.61548203,-0.66015625,-9.894531,1.1445312
0.33571747,-2.4619281,0.16785873,-0.66015625,-9.894531,1.1445312
0.22381164,-2.0143046,0.50357616,-0.66015625,-9.894531,1.1445312
0.22381164,-2.0143046,0.50357616,-0.66015625,-9.894531,1.1445312
-0.05595291,-1.6226344,1.286917,-0.66015625,-9.894531,1.1445312
-0.05595291,-1.6226344,1.286917,-0.66015625,-9.894531,1.1445312
0.5595291,-1.6226344,1.5107286,-0.66015625,-9.894531,1.1445312
0.83929366,-1.3428699,1.0071523,-0.66015625,-9.894531,1.1445312
0.83929366,-1.3428699,1.0071523,-0.66015625,-9.894531,1.1445312
0.67143494,-0.83929366,0.39167038,-0.66015625,-9.894531,1.1445312
0.67143494,-0.83929366,0.39167038,-0.66015625,-9.894531,1.1445312
0.67143494,-0.83929366,0.22381164,-0.66015625,-9.894531,1.1445312
1.286917,-0.9511995000000001,-0.61548203,-0.66015625,-9.894531,1.1445312
1.286917,-0.9511995000000001,-0.61548203,-0.66015625,-9.894531,1.1445312
0.83929366,-0.22381164,-1.5107286,-0.66015625,-9.894531,1.1445312
0.83929366,-0.22381164,-1.5107286,-0.66015625,-9.894531,1.1445312
0.22381164,-0.44762328,-0.5595291,-0.66015625,-9.894531,1.1445312
0.22381164,-0.44762328,-0.5595291,-0.66015625,-9.894531,1.1445312
0.50357616,-1.1190583,-0.44762328,-0.73828125,-10.003906,0.9921875
0.72738785,-1.3988228,-1.1190583,-0.73828125,-10.003906,0.9921875
0.72738785,-1.3988228,-1.1190583,-0.73828125,-10.003906,0.9921875
0.83929366,-0.89524657,-0.89524657,-0.73828125,-10.003906,0.9921875
0.5595291,-1.4547757,-0.78334075,-0.73828125,-10.003906,0.9921875
0.5595291,-1.4547757,-0.78334075,-0.73828125,-10.003906,0.9921875
0.05595291,-1.6785873,-0.61548203,-0.73828125,-10.003906,0.9921875
0.05595291,-1.6785873,-0.61548203,-0.73828125,-10.003906,0.9921875
0.05595291,-2.0702577,-0.67143494,-0.73828125,-10.003906,0.9921875
0.44762328,-1.9583519,-0.78334075,-0.73828125,-10.003906,0.9921875
0.44762328,-1.9583519,-0.78334075,-0.66015625,-9.8125,1.0273438
0.05595291,-2.4619281,-0.9511995000000001,-0.66015625,-9.8125,1.0273438
0.05595291,-2.4619281,-0.9511995000000001,-0.66015625,-9.8125,1.0273438
0.5595291,-3.4131273999999996,-0.61548203,-0.66015625,-9.8125,1.0273438
0.5595291,-3.4131273999999996,-0.61548203,-0.66015625,-9.8125,1.0273438
0.61548203,-5.427432,-0.61548203,-0.66015625,-9.8125,1.0273438
1.3988228,-8.0012665,0.16785873,-0.66015625,-9.8125,1.0273438
1.3988228,-8.0012665,0.16785873,-0.66015625,-9.8125,1.0273438
3.0214572,-10.351288,0.0,-0.66015625,-9.8125,1.0273438
4.252421,-13.148933,-0.67143494,-0.66015625,-9.8125,1.0273438
4.252421,-13.148933,-0.67143494,-0.546875,-9.8125,1.1054688
4.0286093,-16.50611,-1.2309641000000002,-0.546875,-9.8125,1.1054688
4.0286093,-16.50611,-1.2309641000000002,-0.546875,-9.8125,1.1054688
4.1405153,-20.534717999999998,-1.6226344,-0.546875,-9.8125,1.1054688
4.1405153,-20.534717999999998,-1.6226344,-0.546875,-9.8125,1.1054688
4.644091599999999,-25.402620000000002,-0.78334075,-0.546875,-9.8125,1.1054688
5.9310083,-29.375278,0.89524657,-0.546875,-9.8125,1.1054688
5.9310083,-29.375278,0.89524657,-0.546875,-9.8125,1.1054688
7.553642699999999,-32.28483,2.6857398,-0.546875,-9.8125,1.1054688
7.553642699999999,-32.28483,2.6857398,-0.546875,-9.8125,1.1054688
9.6239,-35.41819,3.2452688,-0.546875,-10.769531,1.71875
12.589405000000001,-40.789673,3.5250332,-0.546875,-10.769531,1.71875
12.589405000000001,-40.789673,3.5250332,-0.546875,-10.769531,1.71875
16.897779999999997,-47.392113,3.9726565000000003,-0.546875,-10.769531,1.71875
16.897779999999997,-47.392113,3.9726565000000003,-0.546875,-10.769531,1.71875
23.947845,-54.44218000000001,4.7000446,-0.546875,-10.769531,1.71875
30.046713,-61.883919999999996,4.1964684000000005,-0.546875,-10.769531,1.71875
30.046713,-61.883919999999996,4.1964684000000005,-0.546875,-10.769531,1.71875
35.082474,-66.75182,3.4690803999999997,-0.546875,-10.769531,1.71875
35.082474,-66.75182,3.4690803999999997,-0.546875,-10.769531,1.71875
38.047977,-66.69587,0.78334075,-0.546875,-10.769531,1.71875
41.181343,-63.78631600000001,-2.517881,-0.546875,-10.769531,1.71875
41.181343,-63.78631600000001,-2.517881,0.87109375,-11.9921875,3.9414062000000007
44.146846999999994,-59.98151800000001,-8.448889999999999,0.87109375,-11.9921875,3.9414062000000007
44.146846999999994,-59.98151800000001,-8.448889999999999,0.87109375,-11.9921875,3.9414062000000007
45.93734,-52.53978299999999,-16.33825,0.87109375,-11.9921875,3.9414062000000007
45.99329,-40.062283,-25.346667999999998,0.87109375,-11.9921875,3.9414062000000007
45.99329,-40.062283,-25.346667999999998,0.87109375,-11.9921875,3.9414062000000007
43.811127,-22.045446,-35.474144,0.87109375,-11.9921875,3.9414062000000007
43.811127,-22.045446,-35.474144,0.87109375,-11.9921875,3.9414062000000007
40.509907,-0.89524657,-45.93734,0.87109375,-11.9921875,3.9414062000000007
37.040825,20.926388,-55.673145,0.87109375,-11.9921875,3.9414062000000007
37.040825,20.926388,-55.673145,8.6875,-11.886719,-0.50390625
34.07532,42.076588,-66.36015,8.6875,-11.886719,-0.50390625
34.07532,42.076588,-66.36015,8.6875,-11.886719,-0.50390625
33.236027,62.16368000000001,-73.913795,8.6875,-11.886719,-0.50390625
30.662195,82.13887,-80.18052,8.6875,-11.886719,-0.50390625
30.662195,82.13887,-80.18052,8.6875,-11.886719,-0.50390625
27.808596,100.26762,-87.006775,8.6875,-11.886719,-0.50390625
27.808596,100.26762,-87.006775,8.6875,-11.886719,-0.50390625
24.283564000000002,115.20703999999999,-93.55327,8.6875,-11.886719,-0.50390625
22.213305,126.22977,-100.995,8.6875,-11.886719,-0.50390625
22.213305,126.22977,-100.995,12.59375,-10.9609375,-2.0351562
21.877588,134.23103,-107.54149,12.59375,-10.9609375,-2.0351562
21.877588,134.23103,-107.54149,12.59375,-10.9609375,-2.0351562
21.038294,138.09178,-113.360596,12.59375,-10.9609375,-2.0351562
20.422812,137.7001,-119.2916,12.59375,-10.9609375,-2.0351562
20.422812,137.7001,-119.2916,12.59375,-10.9609375,-2.0351562
20.199001000000003,132.9441,-126.78929,12.59375,-10.9609375,-2.0351562
20.199001000000003,132.9441,-126.78929,12.59375,-10.9609375,-2.0351562
21.038294,124.77498999999999,-133.7834,12.59375,-10.9609375,-2.0351562
23.388317,118.11658999999999,-137.30844,12.59375,-10.9609375,-2.0351562
23.388317,118.11658999999999,-137.30844,12.59375,-10.9609375,-2.0351562
22.437117,104.911705,-146.54066,12.59375,-10.9609375,-2.0351562
22.437117,104.911705,-146.54066,10.792969,-12.691406,1.9492188000000001
20.646624,89.58061,-155.43718,10.792969,-12.691406,1.9492188000000001
21.597822,74.809044,-161.25628999999998,10.792969,-12.691406,1.9492188000000001
21.597822,74.809044,-161.25628999999998,10.792969,-12.691406,1.9492188000000001
22.045446,64.62561,-164.3337,10.792969,-12.691406,1.9492188000000001
22.045446,64.62561,-164.3337,10.792969,-12.691406,1.9492188000000001
18.912083,54.16242,-171.77544,10.792969,-12.691406,1.9492188000000001
19.023989,44.930187,-181.51125,10.792969,-12.691406,1.9492188000000001
19.023989,44.930187,-181.51125,10.792969,-12.691406,1.9492188000000001
18.85613,37.71226,-190.35179,10.792969,-12.691406,1.9492188000000001
18.85613,37.71226,-190.35179,12.402344,-13.640625,2.90625
14.827520999999999,33.01222,-197.73758,12.402344,-13.640625,2.90625
14.827520999999999,33.01222,-197.73758,12.402344,-13.640625,2.90625
8.728653999999999,31.165771000000003,-206.41028,12.402344,-13.640625,2.90625
3.8607507000000005,32.732452,-214.74727000000001,12.402344,-13.640625,2.90625
3.8607507000000005,32.732452,-214.74727000000001,12.402344,-13.640625,2.90625
-0.11190582,38.159884999999996,-222.80449,12.402344,-13.640625,2.90625
-3.133363,44.76233,-230.30217000000002,12.402344,-13.640625,2.90625
-3.133363,44.76233,-230.30217000000002,12.402344,-13.640625,2.90625
-4.5881386,51.812393,-236.12127999999998,12.402344,-13.640625,2.90625
-4.5881386,51.812393,-236.12127999999998,12.402344,-13.640625,2.90625
-5.6512437,60.373188,-241.82847999999998,12.402344,-13.640625,2.90625
-5.7631497000000005,68.03873399999999,-246.36066,13.894531,-15.980469,2.140625
-5.7631497000000005,68.03873399999999,-246.36066,13.894531,-15.980469,2.140625
-4.81195,74.36142,-251.1726,13.894531,-15.980469,2.140625
-4.81195,74.36142,-251.1726,13.894531,-15.980469,2.140625
-2.7976456,79.28527,-255.25717000000003,13.894531,-15.980469,2.140625
-2.7976456,79.28527,-255.25717000000003,13.894531,-15.980469,2.140625
-0.72738785,83.03412,-257.99887,13.894531,-15.980469,2.140625
-0.22381164,83.98532,-261.5239,13.894531,-15.980469,2.140625
-0.22381164,83.98532,-261.5239,13.894531,-15.980469,2.140625
0.83929366,88.68536,-265.16083,13.894531,-15.980469,2.140625
3.5250332,94.61636999999999,-267.0073,8.800781,-18.511719,2.0625
3.5250332,94.61636999999999,-267.0073,8.800781,-18.511719,2.0625
5.2595735,98.92474,-267.06323,8.800781,-18.511719,2.0625
5.2595735,98.92474,-267.06323,8.800781,-18.511719,2.0625
7.609596000000001,102.28192,-266.67157000000003,8.800781,-18.511719,2.0625
7.609596000000001,102.28192,-266.67157000000003,8.800781,-18.511719,2.0625
10.127477,106.03076000000001,-265.66443,8.800781,-18.511719,2.0625
12.253687,108.77245,-266.0561,8.800781,-18.511719,2.0625
12.253687,108.77245,-266.0561,8.800781,-18.511719,2.0625
14.435851000000001,110.39509,-265.49655,8.800781,-18.511719,2.0625
14.435851000000001,110.39509,-265.49655,8.800781,-18.511719,2.0625
13.540605,110.05937,-266.168,4.3203125,-18.085938,1.6054688
19.359707,113.80821999999999,-261.13223,4.3203125,-18.085938,1.6054688
19.359707,113.80821999999999,-261.13223,4.3203125,-18.085938,1.6054688
24.899044,118.396355,-256.60004,4.3203125,-18.085938,1.6054688
24.899044,118.396355,-256.60004,4.3203125,-18.085938,1.6054688
23.220457,118.17255,-253.9143,4.3203125,-18.085938,1.6054688
25.346667999999998,118.284454,-247.42377000000002,4.3203125,-18.085938,1.6054688
25.346667999999998,118.284454,-247.42377000000002,4.3203125,-18.085938,1.6054688
31.501488000000002,121.69758,-240.03797999999998,4.3203125,-18.085938,1.6054688
31.501488000000002,121.69758,-240.03797999999998,-0.46875,-16.4375,1.640625
44.482563,127.79645,-232.82005,-0.46875,-16.4375,1.640625
49.406418,126.95715,-232.82005,-0.46875,-16.4375,1.640625
49.406418,126.95715,-232.82005,-0.46875,-16.4375,1.640625
48.790936,122.31306000000001,-228.06406,-0.46875,-16.4375,1.640625
48.790936,122.31306000000001,-228.06406,-0.46875,-16.4375,1.640625
48.567127,117.55706,-221.85329,-0.46875,-16.4375,1.640625
51.029053000000005,110.95461999999999,-214.80322,-0.46875,-16.4375,1.640625
51.029053000000005,110.95461999999999,-214.80322,-0.46875,-16.4375,1.640625
51.644535,100.60333,-207.80911,-0.46875,-16.4375,1.640625
51.644535,100.60333,-207.80911,-0.46875,-16.4375,1.640625
49.63023,85.60795,-199.0245,-4.453125,-13.183594,0.53125
51.252865,70.50066,-191.58276,-4.453125,-13.183594,0.53125
51.252865,70.50066,-191.58276,-4.453125,-13.183594,0.53125
50.91715,53.323124,-186.09938,-4.453125,-13.183594,0.53125
50.91715,53.323124,-186.09938,-4.453125,-13.183594,0.53125
47.168304,35.92177,-178.04216,-4.453125,-13.183594,0.53125
42.85993,18.016835999999998,-168.86588,-4.453125,-13.183594,0.53125
42.85993,18.016835999999998,-168.86588,-4.453125,-13.183594,0.53125
43.923035,2.0143046,-160.97652,-4.453125,-13.183594,0.53125
43.923035,2.0143046,-160.97652,-4.453125,-13.183594,0.53125
40.789673,-8.057219,-154.98956,-4.453125,-13.183594,0.53125
40.95753,-10.127477,-160.24913,-4.453125,-13.183594,0.53125
40.95753,-10.127477,-160.24913,-7.3632812,-9.46875,-0.80859375
31.501488000000002,-30.830053000000003,-145.47757,-7.3632812,-9.46875,-0.80859375
31.501488000000002,-30.830053000000003,-145.47757,-7.3632812,-9.46875,-0.80859375
27.249066999999997,-47.336163,-125.72618999999999,-7.3632812,-9.46875,-0.80859375
24.954998,-46.049244,-115.822525,-7.3632812,-9.46875,-0.80859375
24.954998,-46.049244,-115.822525,-7.3632812,-9.46875,-0.80859375
21.597822,-50.18976,-107.48553999999999,-7.3632812,-9.46875,-0.80859375
21.597822,-50.18976,-107.48553999999999,-7.3632812,-9.46875,-0.80859375
18.46446,-54.21836999999999,-98.700935,-7.3632812,-9.46875,-0.80859375
18.46446,-54.21836999999999,-98.700935,-6.7890625,-6.4414062,-0.46484375
19.079943,-53.994556,-90.4199,-6.7890625,-6.4414062,-0.46484375
17.68112,-52.371925,-80.79600500000001,-6.7890625,-6.4414062,-0.46484375
17.68112,-52.371925,-80.79600500000001,-6.7890625,-6.4414062,-0.46484375
19.359707,-51.029053000000005,-71.78758,-6.7890625,-6.4414062,-0.46484375
18.240648,-49.014748,-62.387493000000006,-6.7890625,-6.4414062,-0.46484375
18.240648,-49.014748,-62.387493000000006,-6.7890625,-6.4414062,-0.46484375
17.960884,-46.664726,-52.427876,-6.7890625,-6.4414062,-0.46484375
17.960884,-46.664726,-52.427876,-6.7890625,-6.4414062,-0.46484375
18.968037,-45.93734,-42.915882,-6.7890625,-6.4414062,-0.46484375
18.968037,-45.93734,-42.915882,-6.6367188,-5.90625,-0.3515625
18.800179,-44.706375,-33.403890000000004,-6.6367188,-5.90625,-0.3515625
19.583519,-42.132540000000006,-24.78714,-6.6367188,-5.90625,-0.3515625
19.583519,-42.132540000000006,-24.78714,-6.6367188,-5.90625,-0.3515625
19.303753,-38.551556,-15.051332,-6.6367188,-5.90625,-0.3515625
20.478765,-34.63485,-5.8750553,-6.6367188,-5.90625,-0.3515625
20.478765,-34.63485,-5.8750553,-6.6367188,-5.90625,-0.3515625
19.80733,-31.557441999999998,3.4131273999999996,-6.6367188,-5.90625,-0.3515625
19.80733,-31.557441999999998,3.4131273999999996,-6.6367188,-5.90625,-0.3515625
19.359707,-28.200266,13.652510000000001,-6.6367188,-5.90625,-0.3515625
19.191848999999998,-23.891893,23.556175,-6.6367188,-5.90625,-0.3515625
19.191848999999998,-23.891893,23.556175,-6.6757812,-5.1796875,-1.0390625
18.968037,-18.688272,33.01222,-6.6757812,-5.1796875,-1.0390625
18.968037,-18.688272,33.01222,-6.6757812,-5.1796875,-1.0390625
18.240648,-13.204885999999998,42.020634,-6.6757812,-5.1796875,-1.0390625
18.240648,-13.204885999999998,42.020634,-6.6757812,-5.1796875,-1.0390625
16.618013,-8.281031,50.861195,-6.6757812,-5.1796875,-1.0390625
15.498956,-3.5250332,61.156530000000004,-6.6757812,-5.1796875,-1.0390625
15.498956,-3.5250332,61.156530000000004,-6.6757812,-5.1796875,-1.0390625
14.044179999999999,1.3988228,70.16495,-6.6757812,-5.1796875,-1.0390625
14.044179999999999,1.3988228,70.16495,-6.6757812,-5.1796875,-1.0390625
12.477499,6.3226786,79.62099,-6.328125,-4.9101562,-1.1914062
10.519147,10.5751,87.790115,-6.328125,-4.9101562,-1.1914062
10.519147,10.5751,87.790115,-6.328125,-4.9101562,-1.1914062
9.400089,14.212039,95.79138,-6.328125,-4.9101562,-1.1914062
9.400089,14.212039,95.79138,-6.328125,-4.9101562,-1.1914062
8.672701,18.240648,103.40098,-6.328125,-4.9101562,-1.1914062
6.098867,22.772835,110.84271000000001,-6.328125,-4.9101562,-1.1914062
6.098867,22.772835,110.84271000000001,-6.328125,-4.9101562,-1.1914062
4.755997,26.577633000000002,119.90709,-6.328125,-4.9101562,-1.1914062
4.755997,26.577633000000002,119.90709,-6.328125,-4.9101562,-1.1914062
3.5250332,29.878853000000003,128.24406000000002,-5.7539062,-6.4023438,-0.50390625
1.5107286,29.263371999999997,129.53099,-5.7539062,-6.4023438,-0.50390625
1.5107286,29.263371999999997,129.53099,-5.7539062,-6.4023438,-0.50390625
-5.147668,30.270525,132.83221,-5.7539062,-6.4023438,-0.50390625
-5.147668,30.270525,132.83221,-5.7539062,-6.4023438,-0.50390625
-11.5822525,31.557441999999998,140.83348,-5.7539062,-6.4023438,-0.50390625
-15.107285500000001,29.934807,147.77164,-5.7539062,-6.4023438,-0.50390625
-15.107285500000001,29.934807,147.77164,-5.7539062,-6.4023438,-0.50390625
-18.912083,27.528831,154.09431,-5.7539062,-6.4023438,-0.50390625
-18.912083,27.528831,154.09431,-5.7539062,-6.4023438,-0.50390625
-22.940693,25.458574,159.46579,-5.7539062,-6.4023438,-0.50390625
-26.353820000000002,23.556175,164.05392,-5.7539062,-6.4023438,-0.50390625
-26.353820000000002,23.556175,164.05392,-5.7539062,-6.4023438,-0.50390625
-29.766949,21.485917999999998,168.58612,-5.7539062,-6.4023438,-0.50390625
-29.766949,21.485917999999998,168.58612,-4.9140625,-7.9023438,0.1484375
-33.739605,19.471613,173.06235,-4.9140625,-7.9023438,0.1484375
-36.817013,17.457307999999998,177.93025,-4.9140625,-7.9023438,0.1484375
-36.817013,17.457307999999998,177.93025,-4.9140625,-7.9023438,0.1484375
-40.00633,14.715615,182.79816,-4.9140625,-7.9023438,0.1484375
-40.00633,14.715615,182.79816,-4.9140625,-7.9023438,0.1484375
-43.699222999999996,11.750111,188.22558999999998,-4.9140625,-7.9023438,0.1484375
-47.448067,7.161972500000001,193.5411,-4.9140625,-7.9023438,0.1484375
-47.448067,7.161972500000001,193.5411,-3.4179687999999993,-10.34375,0.80078125
-51.58858,4.476233000000001,199.58403,-3.4179687999999993,-10.34375,0.80078125
-51.58858,4.476233000000001,199.58403,-3.4179687999999993,-10.34375,0.80078125
-55.337430000000005,2.7976456,204.45193,-3.4179687999999993,-10.34375,0.80078125
-59.310085,-3.0214572,208.92816000000002,-3.4179687999999993,-10.34375,0.80078125
-59.310085,-3.0214572,208.92816000000002,-3.4179687999999993,-10.34375,0.80078125
-62.611305,-11.078676,213.01272999999998,-3.4179687999999993,-10.34375,0.80078125
-62.611305,-11.078676,213.01272999999998,-3.4179687999999993,-10.34375,0.80078125
-65.63277,-17.345402,216.64967000000001,-3.4179687999999993,-10.34375,0.80078125
-68.318504,-22.772835,219.3354,-3.4179687999999993,-10.34375,0.80078125
-68.318504,-22.772835,219.3354,-1.65625,-13.03125,1.0664062
-69.38161,-31.165771000000003,222.02115,-1.65625,-13.03125,1.0664062
-69.38161,-31.165771000000003,222.02115,-1.65625,-13.03125,1.0664062
-69.60542,-41.3492,224.65094,-1.65625,-13.03125,1.0664062
-69.21375,-50.805240000000005,228.39978,-1.65625,-13.03125,1.0664062
-69.21375,-50.805240000000005,228.39978,-1.65625,-13.03125,1.0664062
-67.255394,-57.855309999999996,229.74265,-1.65625,-13.03125,1.0664062
-67.255394,-57.855309999999996,229.74265,-1.65625,-13.03125,1.0664062
-64.23394,-62.107730000000004,227.84026,-1.65625,-13.03125,1.0664062
-61.772009999999995,-67.31135,229.01526,-1.65625,-13.03125,1.0664062
-61.772009999999995,-67.31135,229.01526,-1.65625,-13.03125,1.0664062
-59.701756,-75.36856999999999,232.14862000000002,-1.65625,-13.03125,1.0664062
-59.701756,-75.36856999999999,232.14862000000002,2.671875,-15.75,3.59375
-55.561240000000005,-82.75435999999999,235.22602999999998,2.671875,-15.75,3.59375
-49.63023,-85.44009399999999,235.72961,2.671875,-15.75,3.59375
-49.63023,-85.44009399999999,235.72961,2.671875,-15.75,3.59375
-43.58732,-87.006775,235.72961,2.671875,-15.75,3.59375
-43.58732,-87.006775,235.72961,2.671875,-15.75,3.59375
-38.719414,-89.58061,235.5058,2.671875,-15.75,3.59375
-31.389582,-89.52466,231.81291000000002,2.671875,-15.75,3.59375
-31.389582,-89.52466,231.81291000000002,2.671875,-15.75,3.59375
-24.954998,-88.12583000000001,229.51882999999998,2.671875,-15.75,3.59375
-24.954998,-88.12583000000001,229.51882999999998,6.9609375,-16.707031,4.78125
-23.612126999999997,-84.65675,226.49738,6.9609375,-16.707031,4.78125
-23.612126999999997,-84.65675,226.49738,6.9609375,-16.707031,4.78125
-21.597822,-82.41863000000001,220.73422000000002,6.9609375,-16.707031,4.78125
-18.408506,-78.27812,215.97822999999997,6.9609375,-16.707031,4.78125
-18.408506,-78.27812,215.97822999999997,6.9609375,-16.707031,4.78125
-16.33825,-74.08165,210.04722999999998,6.9609375,-16.707031,4.78125
-13.932275,-70.50066,204.56384,6.9609375,-16.707031,4.78125
-13.932275,-70.50066,204.56384,6.9609375,-16.707031,4.78125
-11.694158999999999,-66.75182,201.59833,6.9609375,-16.707031,4.78125
-11.694158999999999,-66.75182,201.59833,9.0703125,-16.976562,1.796875
-9.176277,-58.302932999999996,199.2483,9.0703125,-16.976562,1.796875
-12.029876,-51.53263,199.0245,9.0703125,-16.976562,1.796875
-12.029876,-51.53263,199.0245,9.0703125,-16.976562,1.796875
-16.618013,-48.399265,193.87683,9.0703125,-16.976562,1.796875
-16.618013,-48.399265,193.87683,9.0703125,-16.976562,1.796875
-18.800179,-45.265903,185.53986,9.0703125,-16.976562,1.796875
-18.800179,-45.265903,185.53986,9.0703125,-16.976562,1.796875
-17.177544,-42.915882,178.60168000000002,9.0703125,-16.976562,1.796875
-14.883474,-41.01348,177.48264,9.0703125,-16.976562,1.796875
-14.883474,-41.01348,177.48264,9.0703125,-16.976562,1.796875
-12.253687,-37.48845,175.86,9.0703125,-16.976562,1.796875
-12.253687,-37.48845,175.86,10.792969,-16.402344,2.0625
-8.057219,-27.808596,174.18141,10.792969,-16.402344,2.0625
-6.098867,-19.359707,169.2016,10.792969,-16.402344,2.0625
-6.098867,-19.359707,169.2016,10.792969,-16.402344,2.0625
-5.483385,-14.939426000000001,161.3682,10.792969,-16.402344,2.0625
-5.483385,-14.939426000000001,161.3682,10.792969,-16.402344,2.0625
-3.4690803999999997,-13.092981,152.63953999999998,10.792969,-16.402344,2.0625
-3.5250332,-15.498956,144.63828,10.792969,-16.402344,2.0625
-3.5250332,-15.498956,144.63828,10.792969,-16.402344,2.0625
-3.4690803999999997,-17.793026,138.03583,10.792969,-16.402344,2.0625
-3.4690803999999997,-17.793026,138.03583,10.792969,-16.402344,2.0625
-4.5321856,-14.379898,133.33578,11.214844,-14.949219,2.3710937999999997
-6.098867,-13.428699,125.50237,11.214844,-14.949219,2.3710937999999997
-6.098867,-13.428699,125.50237,11.214844,-14.949219,2.3710937999999997
-7.273878,-13.092981,118.788025,11.214844,-14.949219,2.3710937999999997
-7.273878,-13.092981,118.788025,11.214844,-14.949219,2.3710937999999997
-7.4976897,-12.365592999999999,112.01772,11.214844,-14.949219,2.3710937999999997
-8.952466000000001,-11.862017,103.345024,11.214844,-14.949219,2.3710937999999997
-8.952466000000001,-11.862017,103.345024,11.214844,-14.949219,2.3710937999999997
-9.567947,-13.204885999999998,93.66516999999999,11.214844,-14.949219,2.3710937999999997
-9.567947,-13.204885999999998,93.66516999999999,12.746094,-13.144531,2.0625
-12.029876,-8.504842,85.6639,12.746094,-13.144531,2.0625
-19.359707,3.4131273999999996,77.38287,12.746094,-13.144531,2.0625
-19.359707,3.4131273999999996,77.38287,12.746094,-13.144531,2.0625
-24.395468,8.952466000000001,66.52801,12.746094,-13.144531,2.0625
-24.395468,8.952466000000001,66.52801,12.746094,-13.144531,2.0625
-23.779987,11.973923,49.57428,12.746094,-13.144531,2.0625
-20.199001000000003,11.526299,33.236027,12.746094,-13.144531,2.0625
-20.199001000000003,11.526299,33.236027,12.746094,-13.144531,2.0625
-13.820369,17.177544,14.100133,12.746094,-13.144531,2.0625
-13.820369,17.177544,14.100133,18.835938,-13.375,3.4023437999999993
-12.589405000000001,24.395468,-0.5595291,18.835938,-13.375,3.4023437999999993
-12.701310000000001,29.095512,-11.862017,18.835938,-13.375,3.4023437999999993
-12.701310000000001,29.095512,-11.862017,18.835938,-13.375,3.4023437999999993
-9.8477125,33.85151,-23.108551000000002,18.835938,-13.375,3.4023437999999993
-9.8477125,33.85151,-23.108551000000002,18.835938,-13.375,3.4023437999999993
-7.8334074000000005,37.600357,-32.564594,18.835938,-13.375,3.4023437999999993
-5.091715,41.181343,-40.677765,18.835938,-13.375,3.4023437999999993
-5.091715,41.181343,-40.677765,18.835938,-13.375,3.4023437999999993
-4.5881386,40.73372,-47.89569,18.835938,-13.375,3.4023437999999993
-4.5881386,40.73372,-47.89569,18.835938,-13.375,3.4023437999999993
-5.2036204,34.5789,-54.498135,18.835938,-13.375,3.4023437999999993
-6.3226786,23.500221,-60.485096,17.148438,-11.921875,3.3671875
-6.3226786,23.500221,-60.485096,17.148438,-11.921875,3.3671875
-10.519147,13.316792499999998,-66.52801,17.148438,-11.921875,3.3671875
-10.519147,13.316792499999998,-66.52801,17.148438,-11.921875,3.3671875
-16.226343,2.4619281,-76.15191,17.148438,-11.921875,3.3671875
-18.688272,-13.652510000000001,-89.97228,17.148438,-11.921875,3.3671875
-18.688272,-13.652510000000001,-89.97228,17.148438,-11.921875,3.3671875
-21.877588,-28.480032,-104.85575,17.148438,-11.921875,3.3671875
-21.877588,-28.480032,-104.85575,17.148438,-11.921875,3.3671875
-27.696690000000004,-35.92177,-118.11658999999999,17.148438,-11.921875,3.3671875
-31.277676,-39.61466,-134.56673999999998,12.285156,-11.152344,1.9492188000000001
-31.277676,-39.61466,-134.56673999999998,12.285156,-11.152344,1.9492188000000001
-33.85151,-35.306286,-148.33116,12.285156,-11.152344,1.9492188000000001
-33.85151,-35.306286,-148.33116,12.285156,-11.152344,1.9492188000000001
-35.642002000000005,-25.346667999999998,-157.89911,12.285156,-11.152344,1.9492188000000001
-34.355087,-12.029876,-166.51585,12.285156,-11.152344,1.9492188000000001
-34.355087,-12.029876,-166.51585,12.285156,-11.152344,1.9492188000000001
-34.299133000000005,0.33571747,-176.75525,12.285156,-11.152344,1.9492188000000001
-34.299133000000005,0.33571747,-176.75525,12.285156,-11.152344,1.9492188000000001
-34.522945,15.051332,-185.98747,12.285156,-11.152344,1.9492188000000001
-34.522945,15.051332,-185.98747,15.3515625,-14.105469,3.9804687999999993
-32.452686,30.997911,-194.9959,15.3515625,-14.105469,3.9804687999999993
-29.934807,45.54567,-203.83646000000002,15.3515625,-14.105469,3.9804687999999993
-29.934807,45.54567,-203.83646000000002,15.3515625,-14.105469,3.9804687999999993
-27.08121,61.772009999999995,-212.11747999999997,15.3515625,-14.105469,3.9804687999999993
-27.08121,61.772009999999995,-212.11747999999997,15.3515625,-14.105469,3.9804687999999993
-23.108551000000002,76.879295,-223.30806,15.3515625,-14.105469,3.9804687999999993
-19.919235,87.95798,-230.52598999999998,15.3515625,-14.105469,3.9804687999999993
-19.919235,87.95798,-230.52598999999998,15.3515625,-14.105469,3.9804687999999993
-17.904932000000002,96.79853,-234.83437,15.3515625,-14.105469,3.9804687999999993
-16.394203,101.66643499999999,-238.97487999999998,15.3515625,-14.105469,3.9804687999999993
-16.394203,101.66643499999999,-238.97487999999998,12.363281,-17.019531,2.90625
-14.044179999999999,107.37363400000001,-243.45111,12.363281,-17.019531,2.90625
-14.044179999999999,107.37363400000001,-243.45111,12.363281,-17.019531,2.90625
-10.854864,115.15108500000001,-246.80829,12.363281,-17.019531,2.90625
-10.854864,115.15108500000001,-246.80829,12.363281,-17.019531,2.90625
-6.6583962,122.033295,-252.57144,12.363281,-17.019531,2.90625
-2.7416925,126.17381,-257.4953,12.363281,-17.019531,2.90625
-2.7416925,126.17381,-257.4953,12.363281,-17.019531,2.90625
1.7904931,128.57979,-259.56555,12.363281,-17.019531,2.90625
6.826255000000001,130.09052,-260.9644,12.363281,-17.019531,2.90625
6.826255000000001,130.09052,-260.9644,7.6132812,-18.085938,3.0195312000000003
12.141782000000001,132.10481000000001,-261.69177,7.6132812,-18.085938,3.0195312000000003
12.141782000000001,132.10481000000001,-261.69177,7.6132812,-18.085938,3.0195312000000003
16.72992,135.6858,-261.97153,7.6132812,-18.085938,3.0195312000000003
21.094248,140.27393999999998,-261.80365,7.6132812,-18.085938,3.0195312000000003
21.094248,140.27393999999998,-261.80365,7.6132812,-18.085938,3.0195312000000003
26.689536999999998,144.63828,-261.91556,7.6132812,-18.085938,3.0195312000000003
26.689536999999998,144.63828,-261.91556,7.6132812,-18.085938,3.0195312000000003
32.452686,149.1145,-262.02747,7.6132812,-18.085938,3.0195312000000003
32.452686,149.1145,-262.02747,7.6132812,-18.085938,3.0195312000000003
37.432495,156.05266,-261.57986,5.2773438,-18.855469,2.90625
41.90873,165.90038,-260.01318,5.2773438,-18.855469,2.90625
41.90873,165.90038,-260.01318,5.2773438,-18.855469,2.90625
46.88854,177.70644,-258.72626,5.2773438,-18.855469,2.90625
46.88854,177.70644,-258.72626,5.2773438,-18.855469,2.90625
55.057663,197.56972,-251.28452000000001,5.2773438,-18.855469,2.90625
55.057663,197.56972,-251.28452000000001,5.2773438,-18.855469,2.90625
58.358883,208.6484,-247.70354,5.2773438,-18.855469,2.90625
58.358883,208.6484,-247.70354,5.2773438,-18.855469,2.90625
58.358883,208.6484,-247.70354,5.2773438,-18.855469,2.90625
62.835117000000004,218.60802,-243.95467999999997,5.2773438,-18.855469,2.90625
66.86372,225.8819,-240.42966,5.2773438,-18.855469,2.90625
66.86372,225.8819,-240.42966,2.7851562000000003,-16.859375,1.4492188
71.172104,229.01526,-235.95341000000002,2.7851562000000003,-16.859375,1.4492188
71.172104,229.01526,-235.95341000000002,2.7851562000000003,-16.859375,1.4492188
75.48048,227.84026,-230.52598999999998,2.7851562000000003,-16.859375,1.4492188
76.93525,222.86043999999998,-223.30806,2.7851562000000003,-16.859375,1.4492188
76.93525,222.86043999999998,-223.30806,2.7851562000000003,-16.859375,1.4492188
82.13887,220.2866,-215.4187,2.7851562000000003,-16.859375,1.4492188
84.82460999999999,213.6282,-208.7603,2.7851562000000003,-16.859375,1.4492188
87.95798,202.88525,-201.8781,2.7851562000000003,-16.859375,1.4492188
87.95798,202.88525,-201.8781,2.7851562000000003,-16.859375,1.4492188
87.95798,202.88525,-201.8781,2.7851562000000003,-16.859375,1.4492188
91.59491,192.70183,-196.39471,2.7851562000000003,-16.859375,1.4492188
91.59491,192.70183,-196.39471,-1.5820312,-14.792969,0.4921875
95.175896,183.02196999999998,-190.4637,-1.5820312,-14.792969,0.4921875
95.51162,172.83853,-182.96602,-1.5820312,-14.792969,0.4921875
95.62352,162.03963000000002,-175.18855,-1.5820312,-14.792969,0.4921875
95.62352,162.03963000000002,-175.18855,-1.5820312,-14.792969,0.4921875
95.62352,162.03963000000002,-175.18855,-1.5820312,-14.792969,0.4921875
94.61636999999999,149.9538,-166.90753,-1.5820312,-14.792969,0.4921875
93.72112,137.64417,-159.01817,-1.5820312,-14.792969,0.4921875
93.72112,137.64417,-159.01817,-4.4140625,-11.730469,-0.54296875
91.76276999999999,125.72618999999999,-151.35262,-4.4140625,-11.730469,-0.54296875
90.252045,114.59156000000002,-146.31686000000002,-4.4140625,-11.730469,-0.54296875
90.252045,114.59156000000002,-146.31686000000002,-4.4140625,-11.730469,-0.54296875
89.188934,102.449776,-140.83348,-4.4140625,-11.730469,-0.54296875
84.65675,89.02108,-133.16792,-4.4140625,-11.730469,-0.54296875
84.65675,89.02108,-133.16792,-4.4140625,-11.730469,-0.54296875
78.949554,76.487625,-124.60713,-4.4140625,-11.730469,-0.54296875
78.949554,76.487625,-124.60713,-4.4140625,-11.730469,-0.54296875
73.85784,65.40895,-118.17255,-4.4140625,-11.730469,-0.54296875
73.85784,65.40895,-118.17255,-4.4140625,-11.730469,-0.54296875
66.41611,54.83385,-110.506996,-4.4140625,-11.730469,-0.54296875
66.41611,54.83385,-110.506996,-5.21875,-7.5898438,-1.6914061999999999
61.660106999999996,43.699222999999996,-104.46408000000001,-5.21875,-7.5898438,-1.6914061999999999
57.407683999999996,30.38243,-96.68663000000001,-5.21875,-7.5898438,-1.6914061999999999
57.407683999999996,30.38243,-96.68663000000001,-5.21875,-7.5898438,-1.6914061999999999
51.756443,17.737072,-86.89487,-5.21875,-7.5898438,-1.6914061999999999
46.88854,6.098867,-79.67694,-5.21875,-7.5898438,-1.6914061999999999
46.88854,6.098867,-79.67694,-5.21875,-7.5898438,-1.6914061999999999
42.580166,-5.707196700000001,-72.45901500000001,-5.21875,-7.5898438,-1.6914061999999999
38.999179999999996,-16.282297,-65.68871,-5.21875,-7.5898438,-1.6914061999999999
38.999179999999996,-16.282297,-65.68871,-5.21875,-7.5898438,-1.6914061999999999
38.999179999999996,-16.282297,-65.68871,-5.71875,-5.828125,-1.2304688
35.809864000000005,-25.79429,-60.429142000000006,-5.71875,-5.828125,-1.2304688
32.452686,-34.299133000000005,-54.21836999999999,-5.71875,-5.828125,-1.2304688
29.43123,-40.845622999999996,-47.783787,-5.71875,-5.828125,-1.2304688
29.43123,-40.845622999999996,-47.783787,-5.71875,-5.828125,-1.2304688
27.025254999999998,-44.706375,-40.17419,-5.71875,-5.828125,-1.2304688
27.025254999999998,-44.706375,-40.17419,-5.71875,-5.828125,-1.2304688
27.025254999999998,-44.706375,-40.17419,-5.71875,-5.828125,-1.2304688
23.947845,-48.455220000000004,-33.29198,-5.71875,-5.828125,-1.2304688
22.045446,-52.09216,-27.808596,-5.71875,-5.828125,-1.2304688
22.045446,-52.09216,-27.808596,-4.796875,-5.2109375,-1.078125
19.863283,-54.498135,-22.996645,-4.796875,-5.2109375,-1.078125
16.72992,-55.841003,-18.016835999999998,-4.796875,-5.2109375,-1.078125
13.652510000000001,-57.519592,-13.540605,-4.796875,-5.2109375,-1.078125
13.652510000000001,-57.519592,-13.540605,-4.796875,-5.2109375,-1.078125
10.687006,-58.24698000000001,-8.784607000000001,-4.796875,-5.2109375,-1.078125
10.687006,-58.24698000000001,-8.784607000000001,-4.796875,-5.2109375,-1.078125
6.994114,-60.03746999999999,-2.6857398,-4.796875,-5.2109375,-1.078125
3.3012216,-60.317238,3.4690803999999997,-4.796875,-5.2109375,-1.078125
3.3012216,-60.317238,3.4690803999999997,-4.796875,-5.2109375,-1.078125
0.0,-60.597,9.511994,-4.796875,-5.2109375,-1.078125
0.0,-60.597,9.511994,-4.796875,-5.2109375,-1.078125
0.0,-60.597,9.511994,-3.8789062000000007,-4.140625,-2.0351562
-7.217925500000001,-60.652954,21.262106,-3.8789062000000007,-4.140625,-2.0351562
-7.217925500000001,-60.652954,21.262106,-3.8789062000000007,-4.140625,-2.0351562
-11.35844,-59.925568000000005,27.137161,-3.8789062000000007,-4.140625,-2.0351562
-11.35844,-59.925568000000005,27.137161,-3.8789062000000007,-4.140625,-2.0351562
-14.435851000000001,-58.974365,33.515793,-3.8789062000000007,-4.140625,-2.0351562
-17.177544,-58.918415,39.61466,-3.8789062000000007,-4.140625,-2.0351562
-17.177544,-58.918415,39.61466,-3.8789062000000007,-4.140625,-2.0351562
-19.415658999999998,-58.358883,46.16115,-3.8789062000000007,-4.140625,-2.0351562
-19.415658999999998,-58.358883,46.16115,-3.8789062000000007,-4.140625,-2.0351562
-19.415658999999998,-58.358883,46.16115,-3.9179687999999993,-4.5273438,-1.3476562
-23.108551000000002,-55.561240000000005,59.25413,-3.9179687999999993,-4.5273438,-1.3476562
-23.108551000000002,-55.561240000000005,59.25413,-3.9179687999999993,-4.5273438,-1.3476562
-24.451422,-54.274322999999995,66.08038,-3.9179687999999993,-4.5273438,-1.3476562
-24.451422,-54.274322999999995,66.08038,-3.9179687999999993,-4.5273438,-1.3476562
-25.234762,-51.085007,74.025696,-3.9179687999999993,-4.5273438,-1.3476562
-25.234762,-47.392113,82.30673,-3.9179687999999993,-4.5273438,-1.3476562
-25.234762,-47.392113,82.30673,-3.9179687999999993,-4.5273438,-1.3476562
-25.234762,-43.08374,90.30799999999999,-3.9179687999999993,-4.5273438,-1.3476562
-25.234762,-43.08374,90.30799999999999,-3.9179687999999993,-4.5273438,-1.3476562
-25.234762,-43.08374,90.30799999999999,-3.4960937999999993,-6.328125,-0.2734375
-26.297867,-40.286095,98.64498,-3.4960937999999993,-6.328125,-0.2734375
-26.969303000000004,-39.55871,106.64625,-3.4960937999999993,-6.328125,-0.2734375
-28.535984000000003,-40.286095,114.98323,-3.4960937999999993,-6.328125,-0.2734375
-28.535984000000003,-40.286095,114.98323,-3.4960937999999993,-6.328125,-0.2734375
-29.710995,-42.580166,121.92138999999999,-3.4960937999999993,-6.328125,-0.2734375
-32.564594,-45.54567,129.41908,-3.4960937999999993,-6.328125,-0.2734375
-32.564594,-45.54567,129.41908,-3.4960937999999993,-6.328125,-0.2734375
-35.25033,-49.0707,135.62985,-3.4960937999999993,-6.328125,-0.2734375
-35.25033,-49.0707,135.62985,-3.4960937999999993,-6.328125,-0.2734375
-35.25033,-49.0707,135.62985,-3.5351562000000007,-7.3632812,-0.92578125
-40.398003,-59.086273,147.43591,-3.5351562000000007,-7.3632812,-0.92578125
-40.398003,-59.086273,147.43591,-3.5351562000000007,-7.3632812,-0.92578125
-43.307552,-63.84226999999999,153.9824,-3.5351562000000007,-7.3632812,-0.92578125
-43.307552,-63.84226999999999,153.9824,-3.5351562000000007,-7.3632812,-0.92578125
-46.049244,-68.59827,160.86461,-3.5351562000000007,-7.3632812,-0.92578125
-46.049244,-68.59827,160.86461,-3.5351562000000007,-7.3632812,-0.92578125
-47.951645,-73.80189,167.74683000000002,-3.5351562000000007,-7.3632812,-0.92578125
-49.23856,-78.44598,174.46116999999998,-3.5351562000000007,-7.3632812,-0.92578125
-49.23856,-78.44598,174.46116999999998,-3.5351562000000007,-7.3632812,-0.92578125
-49.909996,-81.52339,180.39218,-3.5351562000000007,-7.3632812,-0.92578125
-49.909996,-81.52339,180.39218,-3.5351562000000007,-7.3632812,-0.92578125
-50.805240000000005,-83.6496,186.547,-2.3476562000000003,-9.46875,-0.1953125
-50.805240000000005,-87.06273,192.2542,-2.3476562000000003,-9.46875,-0.1953125
-50.805240000000005,-87.06273,192.2542,-2.3476562000000003,-9.46875,-0.1953125
-50.469524,-91.48301,197.79353,-2.3476562000000003,-9.46875,-0.1953125
-50.469524,-91.48301,197.79353,-2.3476562000000003,-9.46875,-0.1953125
-49.294514,-95.847336,203.6686,-2.3476562000000003,-9.46875,-0.1953125
-48.175457,-98.36521,208.36864,-2.3476562000000003,-9.46875,-0.1953125
-48.175457,-98.36521,208.36864,-2.3476562000000003,-9.46875,-0.1953125
-49.57428,-99.20450600000001,214.07584,-2.3476562000000003,-9.46875,-0.1953125
-49.57428,-99.20450600000001,214.07584,-2.3476562000000003,-9.46875,-0.1953125
-49.57428,-99.20450600000001,214.07584,-1.4648438,-12.609375,0.8359375
-52.8755,-101.44263000000001,219.39136000000002,-1.4648438,-12.609375,0.8359375
-53.994556,-106.590294,222.18901,-1.4648438,-12.609375,0.8359375
-52.931454,-111.402245,225.21046,-1.4648438,-12.609375,0.8359375
-52.931454,-111.402245,225.21046,-1.4648438,-12.609375,0.8359375
-53.490981999999995,-114.03203,227.16881,-1.4648438,-12.609375,0.8359375
-54.777896999999996,-115.59871000000001,228.73549,-1.4648438,-12.609375,0.8359375
-54.777896999999996,-115.59871000000001,228.73549,-1.4648438,-12.609375,0.8359375
-54.44218000000001,-118.95589,229.7986,-1.4648438,-12.609375,0.8359375
-54.44218000000001,-118.95589,229.7986,-1.4648438,-12.609375,0.8359375
-54.83385,-123.71188000000001,231.42122999999998,0.296875,-14.640625,0.453125
-55.057663,-127.57263,232.7641,0.296875,-14.640625,0.453125
-55.057663,-127.57263,232.7641,0.296875,-14.640625,0.453125
-54.83385,-126.84524499999999,233.99507000000003,0.296875,-14.640625,0.453125
-54.83385,-126.84524499999999,233.99507000000003,0.296875,-14.640625,0.453125
-53.77074399999999,-122.70473,234.33077999999998,0.296875,-14.640625,0.453125
-53.043358,-118.89993,233.99507000000003,0.296875,-14.640625,0.453125
-53.043358,-118.89993,233.99507000000003,0.296875,-14.640625,0.453125
-50.91715,-118.788025,234.94627000000003,0.296875,-14.640625,0.453125
-50.91715,-118.788025,234.94627000000003,0.296875,-14.640625,0.453125
-50.637383,-119.179695,236.90462000000002,0.296875,-14.640625,0.453125
-50.637383,-119.179695,236.90462000000002,3.7070312000000007,-17.546875,0.875
-48.06355,-114.255844,237.57605,3.7070312000000007,-17.546875,0.875
-43.699222999999996,-106.19861999999999,239.25464,3.7070312000000007,-17.546875,0.875
-43.699222999999996,-106.19861999999999,239.25464,3.7070312000000007,-17.546875,0.875
-41.461104999999996,-97.1902,242.55586,3.7070312000000007,-17.546875,0.875
-41.74087,-91.3711,242.55586,3.7070312000000007,-17.546875,0.875
-41.74087,-91.3711,242.55586,3.7070312000000007,-17.546875,0.875
-37.48845,-84.32104,238.5832,3.7070312000000007,-17.546875,0.875
-37.48845,-84.32104,238.5832,3.7070312000000007,-17.546875,0.875
-33.180077000000004,-72.68283000000001,238.02367999999998,3.7070312000000007,-17.546875,0.875
-33.180077000000004,-72.68283000000001,238.02367999999998,7.0,-18.667969,1.9101561999999999
-32.061015999999995,-64.4018,239.59036,7.0,-18.667969,1.9101561999999999
-31.7253,-59.366035,239.92607,7.0,-18.667969,1.9101561999999999
-31.7253,-59.366035,239.92607,7.0,-18.667969,1.9101561999999999
-29.095512,-48.343315000000004,238.24747999999997,7.0,-18.667969,1.9101561999999999
-26.857397,-33.236027,237.35225,7.0,-18.667969,1.9101561999999999
-26.857397,-33.236027,237.35225,7.0,-18.667969,1.9101561999999999
-24.954998,-17.569214000000002,236.79271,7.0,-18.667969,1.9101561999999999
-24.954998,-17.569214000000002,236.79271,7.0,-18.667969,1.9101561999999999
-23.556175,-13.820369,235.89746,7.0,-18.667969,1.9101561999999999
-23.556175,-13.820369,235.89746,7.0,-18.667969,1.9101561999999999
-23.83594,-13.204885999999998,233.15578,9.183594,-17.589844,2.2148437999999997
-24.61928,-12.925122,224.9307,9.183594,-17.589844,2.2148437999999997
-24.61928,-12.925122,224.9307,9.183594,-17.589844,2.2148437999999997
-24.507374,-13.540605,214.85917999999998,9.183594,-17.589844,2.2148437999999997
-23.108551000000002,-13.204885999999998,205.7948,9.183594,-17.589844,2.2148437999999997
-23.108551000000002,-13.204885999999998,205.7948,9.183594,-17.589844,2.2148437999999997
-21.709728,-15.834674,200.36737,9.183594,-17.589844,2.2148437999999997
-21.709728,-15.834674,200.36737,9.183594,-17.589844,2.2148437999999997
-21.206152,-24.227610000000002,195.27565,9.183594,-17.589844,2.2148437999999997
-19.079943,-37.208687,186.26724,9.183594,-17.589844,2.2148437999999997
-19.079943,-37.208687,186.26724,10.871094,-16.898438,2.140625
-17.065638,-47.392113,178.04216,10.871094,-16.898438,2.140625
-17.065638,-47.392113,178.04216,10.871094,-16.898438,2.140625
-16.170391,-55.057663,171.15996,10.871094,-16.898438,2.140625
-16.170391,-55.057663,171.15996,10.871094,-16.898438,2.140625
-15.275145000000002,-58.47079,165.22894,10.871094,-16.898438,2.140625
-12.701310000000001,-56.73625,160.80867,10.871094,-16.898438,2.140625
-12.701310000000001,-56.73625,160.80867,10.871094,-16.898438,2.140625
-10.127477,-53.155266000000005,156.55624,10.871094,-16.898438,2.140625
-10.127477,-53.155266000000005,156.55624,10.871094,-16.898438,2.140625
-8.728653999999999,-49.742138,148.89068999999998,10.871094,-16.898438,2.140625
-8.504842,-42.971835999999996,134.17508,10.871094,-16.898438,2.140625
-8.504842,-42.971835999999996,134.17508,13.246094,-14.9453125,3.4804687999999993
-10.18343,-30.830053000000003,120.85828400000001,13.246094,-14.9453125,3.4804687999999993
-10.18343,-30.830053000000003,120.85828400000001,13.246094,-14.9453125,3.4804687999999993
-15.946579000000002,-27.416925,100.71524000000001,13.246094,-14.9453125,3.4804687999999993
-17.848978,-60.76486,79.00551,13.246094,-14.9453125,3.4804687999999993
-17.848978,-60.76486,79.00551,13.246094,-14.9453125,3.4804687999999993
-13.316792499999998,-72.347115,55.337430000000005,13.246094,-14.9453125,3.4804687999999993
-13.316792499999998,-72.347115,55.337430000000005,13.246094,-14.9453125,3.4804687999999993
-22.437117,-27.920502000000003,39.39085,13.246094,-14.9453125,3.4804687999999993
-22.437117,-27.920502000000003,39.39085,24.128906,-11.996094,6.6601562
-37.096779999999995,26.521679,16.841825,24.128906,-11.996094,6.6601562
-30.774101,36.593204,-18.46446,24.128906,-11.996094,6.6601562
-30.774101,36.593204,-18.46446,24.128906,-11.996094,6.6601562
-11.35844,28.591935999999997,-36.53725,24.128906,-11.996094,6.6601562
-1.8464459999999998,54.106464,-33.515793,24.128906,-11.996094,6.6601562
-1.8464459999999998,54.106464,-33.515793,24.128906,-11.996094,6.6601562
3.5250332,87.56631,-37.88012,24.128906,-11.996094,6.6601562
3.5250332,87.56631,-37.88012,24.128906,-11.996094,6.6601562
6.7703023,94.33661,-43.307552,24.128906,-11.996094,6.6601562
6.7703023,94.33661,-43.307552,22.589844,-11.730469,5.703125
8.84056,73.41022,-50.469524,22.589844,-11.730469,5.703125
10.127477,40.230140000000006,-54.777896999999996,22.589844,-11.730469,5.703125
10.127477,40.230140000000006,-54.777896999999996,22.589844,-11.730469,5.703125
10.127477,15.498956,-57.743404000000005,22.589844,-11.730469,5.703125
12.925122,-1.6785873,-71.11615,22.589844,-11.730469,5.703125
12.925122,-1.6785873,-71.11615,22.589844,-11.730469,5.703125
14.323945000000002,-16.226343,-88.74132,22.589844,-11.730469,5.703125
14.323945000000002,-16.226343,-88.74132,22.589844,-11.730469,5.703125
6.994114,-29.766949,-102.337875,22.589844,-11.730469,5.703125
1.286917,-38.831317999999996,-115.09513999999999,22.589844,-11.730469,5.703125
1.286917,-38.831317999999996,-115.09513999999999,22.589844,-11.730469,5.703125
1.286917,-38.831317999999996,-115.09513999999999,10.2578125,-11.082031,4.4375
0.89524657,-43.139694,-127.34881999999999,10.2578125,-11.082031,4.4375
1.6785873,-47.783787,-139.65846000000002,10.2578125,-11.082031,4.4375
-1.3988228,-47.615925,-152.6955,10.2578125,-11.082031,4.4375
-1.3988228,-47.615925,-152.6955,10.2578125,-11.082031,4.4375
-1.4547757,-41.069435,-166.34799999999998,10.2578125,-11.082031,4.4375
-1.4547757,-41.069435,-166.34799999999998,10.2578125,-11.082031,4.4375
-2.573834,-31.7253,-175.2445,10.2578125,-11.082031,4.4375
-2.7976456,-16.450155,-181.62313999999998,10.2578125,-11.082031,4.4375
-2.7976456,-16.450155,-181.62313999999998,10.2578125,-11.082031,4.4375
-2.7976456,-16.450155,-181.62313999999998,15.050781,-14.410156,4.8203125
0.05595291,1.5666815,-189.79227,15.050781,-14.410156,4.8203125
1.6226344,21.597822,-196.45067,15.050781,-14.410156,4.8203125
3.0214572,41.069435,-203.38881999999998,15.050781,-14.410156,4.8203125
3.0214572,41.069435,-203.38881999999998,15.050781,-14.410156,4.8203125
6.0429144,57.407683999999996,-211.05437999999998,15.050781,-14.410156,4.8203125
6.0429144,57.407683999999996,-211.05437999999998,15.050781,-14.410156,4.8203125
10.127477,69.32565,-218.44016000000002,15.050781,-14.410156,4.8203125
15.443003,78.61384,-225.26642,15.050781,-14.410156,4.8203125
15.443003,78.61384,-225.26642,15.050781,-14.410156,4.8203125
20.199001000000003,85.88772,-231.19742000000002,15.050781,-14.410156,4.8203125
20.199001000000003,85.88772,-231.19742000000002,15.050781,-14.410156,4.8203125
24.899044,95.06399499999999,-237.2963,15.050781,-14.410156,4.8203125
24.899044,95.06399499999999,-237.2963,11.480469,-17.359375,3.59375
29.207418,104.24027,-243.0035,11.480469,-17.359375,3.59375
32.28483,113.24869,-247.98328999999998,11.480469,-17.359375,3.59375
32.28483,113.24869,-247.98328999999998,11.480469,-17.359375,3.59375
36.761063,120.242805,-250.66904,11.480469,-17.359375,3.59375
41.181343,124.94285,-251.73215,11.480469,-17.359375,3.59375
41.181343,124.94285,-251.73215,11.480469,-17.359375,3.59375
44.81828,128.57979,-252.73928999999998,11.480469,-17.359375,3.59375
44.81828,128.57979,-252.73928999999998,11.480469,-17.359375,3.59375
47.11235,134.51079,-252.57144,11.480469,-17.359375,3.59375
48.734984999999995,142.06444,-251.34047,11.480469,-17.359375,3.59375
48.734984999999995,142.06444,-251.34047,8.339844,-17.863281,2.8671875
51.868347,146.59662,-250.89285,8.339844,-17.863281,2.8671875
51.868347,146.59662,-250.89285,8.339844,-17.863281,2.8671875
56.232673999999996,146.93233999999998,-251.45237999999998,8.339844,-17.863281,2.8671875
60.876766,147.32399999999998,-251.1726,8.339844,-17.863281,2.8671875
60.876766,147.32399999999998,-251.1726,8.339844,-17.863281,2.8671875
63.954174,149.56213,-250.61307999999997,8.339844,-17.863281,2.8671875
63.954174,149.56213,-250.61307999999997,8.339844,-17.863281,2.8671875
66.80778000000001,149.61809,-251.22856000000002,8.339844,-17.863281,2.8671875
72.347115,147.32399999999998,-252.73928999999998,8.339844,-17.863281,2.8671875
72.347115,147.32399999999998,-252.73928999999998,5.6210938,-18.664062,2.2539062000000003
75.81619,140.05014,-249.82974,5.6210938,-18.664062,2.2539062000000003
75.81619,140.05014,-249.82974,5.6210938,-18.664062,2.2539062000000003
75.36856999999999,131.09767,-245.63327,5.6210938,-18.664062,2.2539062000000003
74.92094399999999,127.46073,-243.05943,5.6210938,-18.664062,2.2539062000000003
74.92094399999999,127.46073,-243.05943,5.6210938,-18.664062,2.2539062000000003
76.879295,126.22977,-241.38086,5.6210938,-18.664062,2.2539062000000003
76.879295,126.22977,-241.38086,5.6210938,-18.664062,2.2539062000000003
81.35553,123.93569,-238.75107000000003,5.6210938,-18.664062,2.2539062000000003
81.35553,123.93569,-238.75107000000003,5.6210938,-18.664062,2.2539062000000003
84.54484599999999,116.94158,-232.48434,5.6210938,-18.664062,2.2539062000000003
84.20913,105.91886000000001,-225.09856000000002,5.6210938,-18.664062,2.2539062000000003
84.20913,105.91886000000001,-225.09856000000002,2.5585937999999997,-17.359375,2.0234375
84.04127,96.01519,-220.23065,2.5585937999999997,-17.359375,2.0234375
84.04127,96.01519,-220.23065,2.5585937999999997,-17.359375,2.0234375
86.11153,91.93063000000001,-218.71992000000003,2.5585937999999997,-17.359375,2.0234375
87.73416,89.97228,-217.2092,2.5585937999999997,-17.359375,2.0234375
87.73416,89.97228,-217.2092,2.5585937999999997,-17.359375,2.0234375
87.51035,85.328186,-214.41154,2.5585937999999997,-17.359375,2.0234375
87.51035,85.328186,-214.41154,2.5585937999999997,-17.359375,2.0234375
86.89487,80.57219,-211.78177000000002,2.5585937999999997,-17.359375,2.0234375
86.615105,77.99835999999999,-209.76746,2.5585937999999997,-17.359375,2.0234375
86.615105,77.99835999999999,-209.76746,2.5585937999999997,-14.5625,1.5664062
85.99962,76.879295,-207.08173,2.5585937999999997,-14.5625,1.5664062
85.99962,76.879295,-207.08173,2.5585937999999997,-14.5625,1.5664062
85.38414,76.26382,-203.83646000000002,2.5585937999999997,-14.5625,1.5664062
84.32104,78.725746,-200.19951,2.5585937999999997,-14.5625,1.5664062
84.32104,78.725746,-200.19951,2.5585937999999997,-14.5625,1.5664062
83.59365,82.41863000000001,-197.56972,2.5585937999999997,-14.5625,1.5664062
83.59365,82.41863000000001,-197.56972,2.5585937999999997,-14.5625,1.5664062
85.10438,85.38414,-194.26851000000002,2.5585937999999997,-14.5625,1.5664062
86.27939,85.94367,-189.84822,2.5585937999999997,-14.5625,1.5664062
86.27939,85.94367,-189.84822,2.6328125,-13.378906,0.953125
86.5032,85.552,-185.53986,2.6328125,-13.378906,0.953125
86.5032,85.552,-185.53986,2.6328125,-13.378906,0.953125
85.831764,83.25793,-180.61599999999999,2.6328125,-13.378906,0.953125
85.10438,78.557884,-175.69214,2.6328125,-13.378906,0.953125
85.10438,78.557884,-175.69214,2.6328125,-13.378906,0.953125
84.65675,74.92094399999999,-170.48851000000002,2.6328125,-13.378906,0.953125
84.65675,74.92094399999999,-170.48851000000002,2.6328125,-13.378906,0.953125
84.88056,72.06734499999999,-165.67656000000002,2.6328125,-13.378906,0.953125
85.10438,68.76613,-160.24913,2.6328125,-13.378906,0.953125
85.10438,68.76613,-160.24913,2.6328125,-13.378906,0.953125
85.88772,65.63277,-155.661,2.6328125,-13.378906,0.953125
85.88772,65.63277,-155.661,1.3710938,-10.765625,1.375
86.615105,62.4994,-152.86334,1.3710938,-10.765625,1.375
86.78296999999999,59.198177,-151.07286000000002,1.3710938,-10.765625,1.375
86.78296999999999,59.198177,-151.07286000000002,1.3710938,-10.765625,1.375
86.05556999999999,56.232673999999996,-148.89068999999998,1.3710938,-10.765625,1.375
86.05556999999999,56.232673999999996,-148.89068999999998,1.3710938,-10.765625,1.375
83.87340999999999,53.155266000000005,-146.20496,1.3710938,-10.765625,1.375
82.30673,48.399265,-142.90373,1.3710938,-10.765625,1.375
82.30673,48.399265,-142.90373,1.3710938,-10.765625,1.375
82.30673,48.399265,-142.90373,1.40625,-8.746094,0.953125
81.13172,44.37066,-139.71442,1.40625,-8.746094,0.953125
80.124565,42.971835999999996,-134.56673999999998,1.40625,-8.746094,0.953125
78.05430600000001,44.594467,-130.31433,1.40625,-8.746094,0.953125
78.05430600000001,44.594467,-130.31433,1.40625,-8.746094,0.953125
75.14475999999999,47.224255,-127.62858600000001,1.40625,-8.746094,0.953125
75.14475999999999,47.224255,-127.62858600000001,1.40625,-8.746094,0.953125
72.1233,46.88854,-124.32736000000001,1.40625,-8.746094,0.953125
69.43755999999999,45.265903,-120.91423999999999,1.40625,-8.746094,0.953125
69.43755999999999,45.265903,-120.91423999999999,1.40625,-8.746094,0.953125
69.43755999999999,45.265903,-120.91423999999999,1.5234375,-6.6757812,0.22265625
67.19945,44.25875,-117.61301399999999,1.5234375,-6.6757812,0.22265625
67.19945,44.25875,-117.61301399999999,1.5234375,-6.6757812,0.22265625
61.995823,46.273056,-111.06653,1.5234375,-6.6757812,0.22265625
61.995823,46.273056,-111.06653,1.5234375,-6.6757812,0.22265625
59.869614,45.713528000000004,-106.870056,1.5234375,-6.6757812,0.22265625
59.869614,45.713528000000004,-106.870056,1.5234375,-6.6757812,0.22265625
57.967213,41.40515,-102.337875,1.5234375,-6.6757812,0.22265625
57.967213,41.40515,-102.337875,1.5234375,-6.6757812,0.22265625
57.183871999999994,36.481297,-98.029495,1.5234375,-6.6757812,0.22265625
55.673145,34.07532,-93.1616,1.5234375,-6.6757812,0.22265625
55.673145,34.07532,-93.1616,1.5234375,-6.6757812,0.22265625
54.106464,32.844357,-89.63656,1.5234375,-6.6757812,0.22265625
54.106464,32.844357,-89.63656,-0.5859375,-4.5234375,1.0273438
52.31597,33.01222,-85.831764,-0.5859375,-4.5234375,1.0273438
50.469524,33.515793,-82.362686,-0.5859375,-4.5234375,1.0273438
50.469524,33.515793,-82.362686,-0.5859375,-4.5234375,1.0273438
48.958797,34.46699,-79.341225,-0.5859375,-4.5234375,1.0273438
46.32901,36.089626,-77.21500999999999,-0.5859375,-4.5234375,1.0273438
46.32901,36.089626,-77.21500999999999,-0.5859375,-4.5234375,1.0273438
44.42661,38.4956,-74.75309,-0.5859375,-4.5234375,1.0273438
44.42661,38.4956,-74.75309,-0.5859375,-4.5234375,1.0273438
41.069435,40.17419,-71.33995999999999,-0.5859375,-4.5234375,1.0273438
41.069435,40.17419,-71.33995999999999,-0.5859375,-4.5234375,1.0273438
37.600357,40.453953000000006,-67.87088,-0.5859375,-4.5234375,1.0273438
37.600357,40.453953000000006,-67.87088,-1.0820312,-2.9570312000000003,0.30078125
33.963417,40.845622999999996,-62.66726,-1.0820312,-2.9570312000000003,0.30078125
30.38243,41.069435,-57.016014,-1.0820312,-2.9570312000000003,0.30078125
30.38243,41.069435,-57.016014,-1.0820312,-2.9570312000000003,0.30078125
26.074057,40.901577,-51.14096,-1.0820312,-2.9570312000000003,0.30078125
22.045446,37.432495,-46.664726,-1.0820312,-2.9570312000000003,0.30078125
22.045446,37.432495,-46.664726,-1.0820312,-2.9570312000000003,0.30078125
18.46446,31.837206,-42.076588,-1.0820312,-2.9570312000000003,0.30078125
18.46446,31.837206,-42.076588,-1.0820312,-2.9570312000000003,0.30078125
14.547756,28.200266,-35.809864000000005,-2.078125,-2.2304687999999997,-0.3515625
11.638206,24.61928,-31.165771000000003,-2.078125,-2.2304687999999997,-0.3515625
11.638206,24.61928,-31.165771000000003,-2.078125,-2.2304687999999997,-0.3515625
8.672701,19.191848999999998,-25.01095,-2.078125,-2.2304687999999997,-0.3515625
8.672701,19.191848999999998,-25.01095,-2.078125,-2.2304687999999997,-0.3515625
5.3714794999999995,13.540605,-18.408506,-2.078125,-2.2304687999999997,-0.3515625
1.6785873,8.169125,-12.197734,-2.078125,-2.2304687999999997,-0.3515625
1.6785873,8.169125,-12.197734,-2.078125,-2.2304687999999997,-0.3515625
-2.3500223,1.1190583,-5.9310083,-2.078125,-2.2304687999999997,-0.3515625
-2.3500223,1.1190583,-5.9310083,-2.078125,-2.2304687999999997,-0.3515625
-6.098867,-5.8750553,-0.72738785,-2.078125,-2.2304687999999997,-0.3515625
-6.098867,-5.8750553,-0.72738785,-3.4179687999999993,-1.2304688,0.1484375
-9.679853,-12.253687,3.9726565000000003,-3.4179687999999993,-1.2304688,0.1484375
-9.679853,-12.253687,3.9726565000000003,-3.4179687999999993,-1.2304688,0.1484375
-9.679853,-12.253687,3.9726565000000003,-3.4179687999999993,-1.2304688,0.1484375
-16.114437,-23.164505,14.156085999999998,-3.4179687999999993,-1.2304688,0.1484375
-19.079943,-25.57048,20.75853,-3.4179687999999993,-1.2304688,0.1484375
-19.079943,-25.57048,20.75853,-3.4179687999999993,-1.2304688,0.1484375
-21.094248,-25.346667999999998,27.137161,-3.4179687999999993,-1.2304688,0.1484375
-21.094248,-25.346667999999998,27.137161,-3.4179687999999993,-1.2304688,0.1484375
-23.332363,-24.451422,33.347935,-3.4179687999999993,-1.2304688,0.1484375
-26.241915000000002,-23.724033,38.551556,-3.4179687999999993,-1.2304688,0.1484375
-26.241915000000002,-23.724033,38.551556,-2.6523437999999997,-1.5,0.5703125
-28.480032,-23.724033,44.146846999999994,-2.6523437999999997,-1.5,0.5703125
-28.480032,-23.724033,44.146846999999994,-2.6523437999999997,-1.5,0.5703125
-30.326477,-22.996645,49.909996,-2.6523437999999997,-1.5,0.5703125
-31.949112,-20.646624,55.113617000000005,-2.6523437999999997,-1.5,0.5703125
-31.949112,-20.646624,55.113617000000005,-2.6523437999999997,-1.5,0.5703125
-34.41104,-18.296602,60.54105,-2.6523437999999997,-1.5,0.5703125
-34.41104,-18.296602,60.54105,-2.6523437999999997,-1.5,0.5703125
-36.817013,-16.282297,65.96848,-2.6523437999999997,-1.5,0.5703125
-41.069435,-16.562061,71.22805,-2.6523437999999997,-1.5,0.5703125
-41.069435,-16.562061,71.22805,-2.0390625,-2.3476562000000003,0.4921875
-44.202797,-19.303753,76.54358,-2.0390625,-2.3476562000000003,0.4921875
-44.202797,-19.303753,76.54358,-2.0390625,-2.3476562000000003,0.4921875
-47.783787,-20.534717999999998,82.194824,-2.0390625,-2.3476562000000003,0.4921875
-50.18976,-19.471613,86.615105,-2.0390625,-2.3476562000000003,0.4921875
-50.18976,-19.471613,86.615105,-2.0390625,-2.3476562000000003,0.4921875
-53.714794,-20.310904999999998,89.69251,-2.0390625,-2.3476562000000003,0.4921875
-53.714794,-20.310904999999998,89.69251,-2.0390625,-2.3476562000000003,0.4921875
-57.463640000000005,-24.283564000000002,93.88898499999999,-2.0390625,-2.3476562000000003,0.4921875
-61.268436,-29.095512,99.484276,-2.0390625,-2.3476562000000003,0.4921875
-61.268436,-29.095512,99.484276,-0.890625,-3.8789062000000007,0.33984375
-65.073235,-33.29198,105.13552,-0.890625,-3.8789062000000007,0.33984375
-65.073235,-33.29198,105.13552,-0.890625,-3.8789062000000007,0.33984375
-67.47921,-36.761063,108.88436000000002,-0.890625,-3.8789062000000007,0.33984375
-67.47921,-36.761063,108.88436000000002,-0.890625,-3.8789062000000007,0.33984375
-70.50066,-41.3492,113.92013,-0.890625,-3.8789062000000007,0.33984375
-73.74593,-46.88854,120.1309,-0.890625,-3.8789062000000007,0.33984375
-73.74593,-46.88854,120.1309,-0.890625,-3.8789062000000007,0.33984375
-75.48048,-53.8267,125.16666000000001,-0.890625,-3.8789062000000007,0.33984375
-76.93525,-60.205330000000004,130.20242,-0.890625,-3.8789062000000007,0.33984375
-76.93525,-60.205330000000004,130.20242,-0.890625,-3.8789062000000007,0.33984375
-77.942406,-64.45775,133.67151,-0.890625,-3.8789062000000007,0.33984375
-77.942406,-64.45775,133.67151,-1.0429688,-5.7890625,1.4101562
-79.341225,-67.14349,137.25249,-1.0429688,-5.7890625,1.4101562
-80.516235,-70.78043000000001,141.33705,-1.0429688,-5.7890625,1.4101562
-80.516235,-70.78043000000001,141.33705,-1.0429688,-5.7890625,1.4101562
-81.24361999999999,-75.312614,145.08588999999998,-1.0429688,-5.7890625,1.4101562
-81.24361999999999,-75.312614,145.08588999999998,-1.0429688,-5.7890625,1.4101562
-81.7472,-79.50909,148.66689,-1.0429688,-5.7890625,1.4101562
-81.7472,-79.50909,148.66689,-1.0429688,-5.7890625,1.4101562
-81.85911,-80.06860999999999,152.6955,-1.0429688,-5.7890625,1.4101562
-83.369835,-79.00551,155.49313,-1.0429688,-5.7890625,1.4101562
-83.369835,-79.00551,155.49313,-1.0429688,-5.7890625,1.4101562
-83.369835,-79.00551,155.49313,0.21875,-7.8984375,2.1796875
-84.936516,-80.06860999999999,158.17888,0.21875,-7.8984375,2.1796875
-84.936516,-80.06860999999999,158.17888,0.21875,-7.8984375,2.1796875
-85.49605,-87.67820999999999,163.83012,0.21875,-7.8984375,2.1796875
-85.49605,-87.67820999999999,163.83012,0.21875,-7.8984375,2.1796875
-85.38414,-85.71986,167.80278,0.21875,-7.8984375,2.1796875
-84.936516,-81.299576,171.49567,0.21875,-7.8984375,2.1796875
-84.936516,-81.299576,171.49567,0.21875,-7.8984375,2.1796875
-85.49605,-80.18052,175.30046000000002,0.21875,-7.8984375,2.1796875
-85.49605,-80.18052,175.30046000000002,2.0195312,-9.8125,2.484375
-85.94367,-84.153175,179.27312,2.0195312,-9.8125,2.484375
-85.94367,-84.153175,179.27312,2.0195312,-9.8125,2.484375
-85.94367,-89.63656,182.18268,2.0195312,-9.8125,2.484375
-84.65675,-92.49016,184.42078999999998,2.0195312,-9.8125,2.484375
-84.65675,-92.49016,184.42078999999998,2.0195312,-9.8125,2.484375
-84.04127,-91.98658,185.93152,2.0195312,-9.8125,2.484375
-85.38414,-90.36395,186.99463,2.0195312,-9.8125,2.484375
-85.38414,-90.36395,186.99463,2.0195312,-9.8125,2.484375
-86.72700999999999,-92.60206600000001,188.11368000000002,2.0195312,-9.8125,2.484375
-86.72700999999999,-92.60206600000001,188.11368000000002,2.0195312,-9.8125,2.484375
-86.72700999999999,-92.60206600000001,188.11368000000002,2.0976562000000003,-11.1171875,2.5234375
-87.51035,-97.637825,188.84106,2.0976562000000003,-11.1171875,2.5234375
-87.56631,-100.77119,188.3375,2.0976562000000003,-11.1171875,2.5234375
-88.34965,-98.36521,188.56131000000002,2.0976562000000003,-11.1171875,2.5234375
-88.34965,-98.36521,188.56131000000002,2.0976562000000003,-11.1171875,2.5234375
-89.58061,-93.55327,190.51965,2.0976562000000003,-11.1171875,2.5234375
-89.58061,-93.55327,190.51965,2.0976562000000003,-11.1171875,2.5234375
-90.86752,-89.30084000000001,192.58992,2.0976562000000003,-11.1171875,2.5234375
-89.58061,-89.077034,192.70183,2.0976562000000003,-11.1171875,2.5234375
-89.58061,-89.077034,192.70183,2.0976562000000003,-11.1171875,2.5234375
-89.468704,-89.74847,192.08633,2.0976562000000003,-11.1171875,2.5234375
-89.468704,-89.74847,192.08633,3.515625,-13.984375,1.296875
-89.02108,-88.34965,195.61137,3.515625,-13.984375,1.296875
-91.59491,-84.71271,201.09476,3.515625,-13.984375,1.296875
-91.59491,-84.71271,201.09476,3.515625,-13.984375,1.296875
-92.26635,-86.72700999999999,203.94835,3.515625,-13.984375,1.296875
-92.26635,-86.72700999999999,203.94835,3.515625,-13.984375,1.296875
-90.92348,-94.05684000000001,207.5853,3.515625,-13.984375,1.296875
-88.12583000000001,-99.37236999999999,208.70435,3.515625,-13.984375,1.296875
-88.12583000000001,-99.37236999999999,208.70435,3.515625,-13.984375,1.296875
-84.32104,-100.65929,208.31268,3.515625,-13.984375,1.296875
-84.32104,-100.65929,208.31268,5.5820312,-15.519531,3.5195312000000007
-82.6984,-99.316414,208.14481999999998,5.5820312,-15.519531,3.5195312000000007
-80.6841,-97.134254,210.5508,5.5820312,-15.519531,3.5195312000000007
-80.6841,-97.134254,210.5508,5.5820312,-15.519531,3.5195312000000007
-78.11026,-102.84144599999999,211.72581,5.5820312,-15.519531,3.5195312000000007
-78.11026,-102.84144599999999,211.72581,5.5820312,-15.519531,3.5195312000000007
-75.03285,-112.12963,211.39009,5.5820312,-15.519531,3.5195312000000007
-72.68283000000001,-119.68327,211.83772000000002,5.5820312,-15.519531,3.5195312000000007
-72.68283000000001,-119.68327,211.83772000000002,5.5820312,-15.519531,3.5195312000000007
-73.130455,-124.94285,209.93532000000002,5.5820312,-15.519531,3.5195312000000007
-73.130455,-124.94285,209.93532000000002,5.5820312,-15.519531,3.5195312000000007
-73.130455,-124.94285,209.93532000000002,5.9296875,-15.449219,3.1367187999999997
-73.242355,-127.34881999999999,208.5365,5.9296875,-15.449219,3.1367187999999997
-73.242355,-127.34881999999999,208.5365,5.9296875,-15.449219,3.1367187999999997
-68.318504,-130.87386,205.7948,5.9296875,-15.449219,3.1367187999999997
-68.318504,-130.87386,205.7948,5.9296875,-15.449219,3.1367187999999997
-66.3042,-130.03456,203.83646000000002,5.9296875,-15.449219,3.1367187999999997
-63.394645999999995,-123.65593,200.59118999999998,5.9296875,-15.449219,3.1367187999999997
-63.394645999999995,-123.65593,200.59118999999998,5.9296875,-15.449219,3.1367187999999997
-62.835117000000004,-115.43085500000001,197.06615,5.9296875,-15.449219,3.1367187999999997
-62.835117000000004,-115.43085500000001,197.06615,5.9296875,-15.449219,3.1367187999999997
-60.429142000000006,-104.911705,193.09349,5.9296875,-15.449219,3.1367187999999997
-56.232673999999996,-92.54611,190.91133,5.9296875,-15.449219,3.1367187999999997
-56.232673999999996,-92.54611,190.91133,6.9609375,-16.253906,2.90625
-54.21836999999999,-81.41148000000001,188.56131000000002,6.9609375,-16.253906,2.90625
-54.21836999999999,-81.41148000000001,188.56131000000002,6.9609375,-16.253906,2.90625
-50.861195,-71.11615,186.09938,6.9609375,-16.253906,2.90625
-45.321857,-59.086273,184.6446,6.9609375,-16.253906,2.90625
-45.321857,-59.086273,184.6446,6.9609375,-16.253906,2.90625
-41.069435,-45.93734,183.24577,6.9609375,-16.253906,2.90625
-41.069435,-45.93734,183.24577,6.9609375,-16.253906,2.90625
-35.194379999999995,-36.593204,184.19698,6.9609375,-16.253906,2.90625
-28.927653999999997,-30.046713,184.02911,6.9609375,-16.253906,2.90625
-28.927653999999997,-30.046713,184.02911,6.9609375,-16.253906,2.90625
-24.339516,-19.303753,183.74936,6.9609375,-16.253906,2.90625
-24.339516,-19.303753,183.74936,6.9609375,-16.253906,2.90625
-21.206152,-4.1405153,184.36484,6.9609375,-16.253906,2.90625
-21.206152,-4.1405153,184.36484,8.6875,-17.929688,3.2890625
-19.471613,10.798911,184.98032,8.6875,-17.929688,3.2890625
-18.184696,21.877588,185.42795,8.6875,-17.929688,3.2890625
-18.184696,21.877588,185.42795,8.6875,-17.929688,3.2890625
-16.953732000000002,28.983605999999998,185.372,8.6875,-17.929688,3.2890625
-16.226343,33.45984,185.20413,8.6875,-17.929688,3.2890625
-16.226343,33.45984,185.20413,8.6875,-17.929688,3.2890625
-18.352554,35.865814,183.74936,8.6875,-17.929688,3.2890625
-18.352554,35.865814,183.74936,8.6875,-17.929688,3.2890625
-18.352554,35.865814,183.74936,7.765625,-14.949219,3.328125
-19.583519,35.75391,182.51838999999998,7.765625,-14.949219,3.328125
-19.583519,35.75391,182.51838999999998,7.765625,-14.949219,3.328125
-22.381165,31.949112,183.52553999999998,7.765625,-14.949219,3.328125
-22.381165,31.949112,183.52553999999998,7.765625,-14.949219,3.328125
-21.206152,29.207418,181.73505,7.765625,-14.949219,3.328125
-21.206152,29.207418,181.73505,7.765625,-14.949219,3.328125
-20.36686,27.360972999999998,182.57433999999998,7.765625,-14.949219,3.328125
-20.36686,25.234762,181.45529,7.765625,-14.949219,3.328125
-20.36686,25.234762,181.45529,5.2773438,-13.796875,3.7109375
-20.254953,22.940693,180.22432,5.2773438,-13.796875,3.7109375
-20.254953,22.940693,180.22432,5.2773438,-13.796875,3.7109375
-18.576366,18.968037,176.36356999999998,5.2773438,-13.796875,3.7109375
-16.618013,18.46446,171.66353,5.2773438,-13.796875,3.7109375
-16.618013,18.46446,171.66353,5.2773438,-13.796875,3.7109375
0.67143494,2.1821634999999997,1.8464459999999998,-0.46875,-9.890625,2.0234375
0.16785873,1.6785873,2.3500223,-0.46875,-9.890625,2.0234375
0.16785873,1.6785873,2.3500223,-0.5078125,-9.7734375,2.0234375
0.67143494,0.67143494,2.3500223,-0.5078125,-9.7734375,2.0234375
0.11190582,-0.11190582,2.573834,-0.5078125,-9.7734375,2.0234375
0.11190582,-0.11190582,2.573834,-0.5078125,-9.7734375,2.0234375
0.0,-2.0702577,2.7976456,-0.5078125,-9.7734375,2.0234375
-0.05595291,-2.8535984,2.6857398,-0.5078125,-9.7734375,2.0234375
-0.05595291,-2.8535984,2.6857398,-0.5078125,-9.7734375,2.0234375
-0.39167038,-3.5250332,3.07741,-0.5078125,-9.7734375,2.0234375
-0.39167038,-3.5250332,3.07741,-0.5078125,-9.7734375,2.0234375
-0.22381164,-4.0286093,3.2452688,-0.5078125,-9.7734375,2.0234375
-0.50357616,-4.5881386,3.2452688,-0.5078125,-9.7734375,2.0234375
-0.50357616,-4.5881386,3.2452688,-0.4296875,-9.6953125,1.9492188000000001
-0.44762328,-4.9238563,3.1893158,-0.4296875,-9.6953125,1.9492188000000001
-0.44762328,-4.9238563,3.1893158,-0.4296875,-9.6953125,1.9492188000000001
-0.44762328,-4.9238563,3.1893158,-0.4296875,-9.6953125,1.9492188000000001
-0.67143494,-5.6512437,2.6857398,-0.4296875,-9.6953125,1.9492188000000001
-0.67143494,-5.6512437,2.6857398,-0.4296875,-9.6953125,1.9492188000000001
-0.72738785,-5.5952910000000005,2.6857398,-0.4296875,-9.6953125,1.9492188000000001
-0.72738785,-5.5952910000000005,2.6857398,-0.4296875,-9.6953125,1.9492188000000001
-1.1190583,-5.2595735,3.1893158,-0.4296875,-9.6953125,1.9492188000000001
-0.67143494,-5.035762,2.9095514,-0.4296875,-9.6953125,1.9492188000000001
-0.67143494,-5.035762,2.9095514,-0.4296875,-9.6953125,1.9492188000000001
-0.67143494,-5.035762,2.9095514,-0.31640625,-9.699219,1.8320311999999999
-0.89524657,-4.308374,3.1893158,-0.31640625,-9.699219,1.8320311999999999
-0.89524657,-4.308374,3.1893158,-0.31640625,-9.699219,1.8320311999999999
-0.89524657,-3.3012216,2.6297867000000004,-0.31640625,-9.699219,1.8320311999999999
-0.89524657,-3.3012216,2.6297867000000004,-0.31640625,-9.699219,1.8320311999999999
-0.67143494,-2.9095514,2.6297867000000004,-0.31640625,-9.699219,1.8320311999999999
-0.67143494,-2.9095514,2.6297867000000004,-0.31640625,-9.699219,1.8320311999999999
-0.67143494,-2.9095514,2.6297867000000004,-0.31640625,-9.699219,1.8320311999999999
-1.3428699,-2.1262105,2.1262105,-0.31640625,-9.699219,1.8320311999999999
-1.3428699,-2.1262105,2.1262105,-0.31640625,-9.699219,1.8320311999999999
-1.3428699,-2.1262105,2.1262105,-0.23828125,-9.65625,1.9492188000000001
-1.4547757,-1.8464459999999998,2.1262105,-0.23828125,-9.65625,1.9492188000000001
-1.286917,-0.72738785,2.0143046,-0.23828125,-9.65625,1.9492188000000001
-1.286917,-0.72738785,2.0143046,-0.23828125,-9.65625,1.9492188000000001
-1.3988228,0.05595291,1.6785873,-0.23828125,-9.65625,1.9492188000000001
-1.5107286,0.50357616,1.3428699,-0.23828125,-9.65625,1.9492188000000001
-1.5107286,0.50357616,1.3428699,-0.23828125,-9.65625,1.9492188000000001
-1.5666815,1.0071523,1.2309641000000002,-0.23828125,-9.65625,1.9492188000000001
-1.3428699,1.8464459999999998,1.3428699,-0.23828125,-9.65625,1.9492188000000001
-1.3428699,1.8464459999999998,1.3428699,-0.23828125,-9.65625,1.9492188000000001
-1.6785873,1.9023990000000002,1.0071523,-0.23828125,-9.65625,1.9492188000000001
-1.6785873,1.9023990000000002,1.0071523,-0.23828125,-9.65625,1.9492188000000001
-1.6785873,1.9023990000000002,1.0071523,-0.27734375,-9.660156,2.0625
-1.1190583,2.6857398,0.89524657,-0.27734375,-9.660156,2.0625
-1.1190583,2.6857398,0.89524657,-0.27734375,-9.660156,2.0625
-0.72738785,3.3571746,0.39167038,-0.27734375,-9.660156,2.0625
-0.72738785,3.3571746,0.39167038,-0.27734375,-9.660156,2.0625
-0.72738785,4.252421,0.78334075,-0.27734375,-9.660156,2.0625
-0.72738785,4.252421,0.78334075,-0.27734375,-9.660156,2.0625
-0.5595291,4.644091599999999,0.22381164,-0.27734375,-9.660156,2.0625
0.22381164,5.5952910000000005,0.22381164,-0.27734375,-9.660156,2.0625
0.22381164,5.5952910000000005,0.22381164,-0.27734375,-9.660156,2.0625
0.22381164,5.5952910000000005,0.22381164,-0.23828125,-9.582031,2.2148437999999997
0.78334075,6.15482,0.33571747,-0.23828125,-9.582031,2.2148437999999997
1.1750112,6.5464907,0.33571747,-0.23828125,-9.582031,2.2148437999999997
1.3988228,6.0429144,0.05595291,-0.23828125,-9.582031,2.2148437999999997
1.3988228,6.0429144,0.05595291,-0.23828125,-9.582031,2.2148437999999997
1.9583519,5.819103,-0.05595291,-0.23828125,-9.582031,2.2148437999999997
1.9583519,5.819103,-0.05595291,-0.23828125,-9.582031,2.2148437999999997
1.6226344,4.644091599999999,-0.50357616,-0.23828125,-9.582031,2.2148437999999997
2.0702577,3.4131273999999996,-0.44762328,-0.23828125,-9.582031,2.2148437999999997
2.0702577,3.4131273999999996,-0.44762328,-0.23828125,-9.582031,2.2148437999999997
2.0702577,3.4131273999999996,-0.44762328,-0.546875,-9.738281,2.140625
2.573834,2.6297867000000004,-0.22381164,-0.546875,-9.738281,2.140625
2.573834,2.6297867000000004,-0.22381164,-0.546875,-9.738281,2.140625
3.4690803999999997,-0.50357616,-0.33571747,-0.546875,-9.738281,2.140625
3.4690803999999997,-0.50357616,-0.33571747,-0.546875,-9.738281,2.140625
3.4690803999999997,-1.6785873,-0.16785873,-0.546875,-9.738281,2.140625
3.4690803999999997,-1.6785873,-0.16785873,-0.546875,-9.738281,2.140625
4.308374,-2.9655042000000003,-0.05595291,-0.546875,-9.738281,2.140625
3.9167037000000002,-4.1964684000000005,0.0,-0.546875,-9.738281,2.140625
3.9167037000000002,-4.1964684000000005,0.0,-0.546875,-9.738281,2.140625
3.9167037000000002,-4.9798089999999995,0.05595291,-0.546875,-9.738281,2.140625
3.9167037000000002,-4.9798089999999995,0.05595291,-0.5859375,-9.8125,1.9882811999999999
3.9726565000000003,-5.427432,0.39167038,-0.5859375,-9.8125,1.9882811999999999
3.9167037000000002,-5.9310083,0.44762328,-0.5859375,-9.8125,1.9882811999999999
3.9167037000000002,-5.9310083,0.44762328,-0.5859375,-9.8125,1.9882811999999999
3.9726565000000003,-6.15482,0.39167038,-0.5859375,-9.8125,1.9882811999999999
3.9726565000000003,-6.15482,0.39167038,-0.5859375,-9.8125,1.9882811999999999
3.7488449,-6.15482,0.44762328,-0.5859375,-9.8125,1.9882811999999999
3.9167037000000002,-5.7631497000000005,0.5595291,-0.5859375,-9.8125,1.9882811999999999
3.9167037000000002,-5.7631497000000005,0.5595291,-0.5859375,-9.8125,1.9882811999999999
3.5250332,-6.4345846,0.78334075,-0.5859375,-9.8125,1.9882811999999999
3.5250332,-6.4345846,0.78334075,-0.5859375,-9.8125,1.9882811999999999
3.3571746,-6.4345846,0.78334075,-0.4296875,-9.855469,1.7578125
2.6297867000000004,-6.7703023,0.50357616,-0.4296875,-9.855469,1.7578125
2.6297867000000004,-6.7703023,0.50357616,-0.4296875,-9.855469,1.7578125
2.2940693,-6.994114,0.5595291,-0.4296875,-9.855469,1.7578125
2.2940693,-6.994114,0.5595291,-0.4296875,-9.855469,1.7578125
2.1821634999999997,-7.1060195,0.16785873,-0.4296875,-9.855469,1.7578125
2.1262105,-6.7143493,0.5595291,-0.4296875,-9.855469,1.7578125
2.1262105,-6.7143493,0.5595291,-0.4296875,-9.855469,1.7578125
1.5666815,-6.7703023,0.05595291,-0.4296875,-9.855469,1.7578125
1.5666815,-6.7703023,0.05595291,-0.4296875,-9.855469,1.7578125
1.5666815,-6.7703023,0.05595291,-0.31640625,-9.8125,1.6054688
1.0071523,-5.707196700000001,0.39167038,-0.31640625,-9.8125,1.6054688
1.0071523,-5.707196700000001,0.39167038,-0.31640625,-9.8125,1.6054688
0.5595291,-5.539338,0.39167038,-0.31640625,-9.8125,1.6054688
0.5595291,-5.539338,0.39167038,-0.31640625,-9.8125,1.6054688
1.0071523,-4.867903,0.0,-0.31640625,-9.8125,1.6054688
0.33571747,-4.0286093,0.0,-0.31640625,-9.8125,1.6054688
0.33571747,-4.0286093,0.0,-0.31640625,-9.8125,1.6054688
0.05595291,-3.07741,-0.05595291,-0.31640625,-9.8125,1.6054688
0.05595291,-3.07741,-0.05595291,-0.31640625,-9.8125,1.6054688
0.05595291,-3.07741,-0.05595291,-0.046875,-9.6953125,1.6796875
0.05595291,-3.07741,-0.05595291,-0.046875,-9.6953125,1.6796875
0.16785873,-2.6857398,-0.33571747,-0.046875,-9.6953125,1.6796875
0.5595291,-3.636939,-0.78334075,-0.046875,-9.6953125,1.6796875
0.5595291,-3.636939,-0.78334075,-0.046875,-9.6953125,1.6796875
1.2309641000000002,-5.2036204,-0.9511995000000001,-0.046875,-9.6953125,1.6796875
1.9583519,-8.225078,-0.89524657,-0.046875,-9.6953125,1.6796875
1.9583519,-8.225078,-0.89524657,-0.046875,-9.6953125,1.6796875
3.07741,-12.925122,-0.61548203,-0.046875,-9.6953125,1.6796875
3.07741,-12.925122,-0.61548203,-0.046875,-9.6953125,1.6796875
3.0214572,-19.191848999999998,0.44762328,-0.046875,-9.6953125,1.6796875
3.0214572,-19.191848999999998,0.44762328,-0.046875,-9.9609375,1.9101561999999999
3.5250332,-23.891893,0.89524657,-0.046875,-9.9609375,1.9101561999999999
4.1964684000000005,-27.360972999999998,0.0,-0.046875,-9.9609375,1.9101561999999999
4.1964684000000005,-27.360972999999998,0.0,-0.046875,-9.9609375,1.9101561999999999
4.308374,-32.005066,-1.1190583,-0.046875,-9.9609375,1.9101561999999999
4.308374,-32.005066,-1.1190583,-0.046875,-9.9609375,1.9101561999999999
3.9167037000000002,-38.383697999999995,-0.33571747,-0.046875,-9.9609375,1.9101561999999999
5.8750553,-45.153999999999996,0.44762328,-0.046875,-9.9609375,1.9101561999999999
5.8750553,-45.153999999999996,0.44762328,-0.046875,-9.9609375,1.9101561999999999
8.728653999999999,-50.41357,1.4547757,-0.046875,-9.9609375,1.9101561999999999
8.728653999999999,-50.41357,1.4547757,-0.5859375,-9.964844,2.2539062000000003
9.679853,-58.191025,3.07741,-0.5859375,-9.964844,2.2539062000000003
10.463194,-67.47921,2.6857398,-0.5859375,-9.964844,2.2539062000000003
10.463194,-67.47921,2.6857398,-0.5859375,-9.964844,2.2539062000000003
11.638206,-76.82334,1.3428699,-0.5859375,-9.964844,2.2539062000000003
12.757263,-86.615105,0.05595291,-0.5859375,-9.964844,2.2539062000000003
12.757263,-86.615105,0.05595291,-0.5859375,-9.964844,2.2539062000000003
14.156085999999998,-95.175896,-0.44762328,-0.5859375,-9.964844,2.2539062000000003
14.156085999999998,-95.175896,-0.44762328,-0.5859375,-9.964844,2.2539062000000003
17.345402,-101.16286,-0.89524657,-0.5859375,-9.964844,2.2539062000000003
17.345402,-101.16286,-0.89524657,-0.5859375,-9.964844,2.2539062000000003
22.381165,-104.85575,-0.72738785,-0.39453125,-11.265625,2.9453125
26.633584999999997,-103.512886,1.0631051999999999,-0.39453125,-11.265625,2.9453125
26.633584999999997,-103.512886,1.0631051999999999,-0.39453125,-11.265625,2.9453125
29.319323999999998,-99.81999,-1.3428699,-0.39453125,-11.265625,2.9453125
29.319323999999998,-99.81999,-1.3428699,-0.39453125,-11.265625,2.9453125
25.01095,-91.98658,-5.091715,-0.39453125,-11.265625,2.9453125
19.975189999999998,-79.62099,-10.687006,-0.39453125,-11.265625,2.9453125
19.975189999999998,-79.62099,-10.687006,-0.39453125,-11.265625,2.9453125
21.877588,-65.2411,-18.240648,-0.39453125,-11.265625,2.9453125
21.877588,-65.2411,-18.240648,-0.39453125,-11.265625,2.9453125
19.975189999999998,-55.057663,-20.870435999999998,-0.39453125,-11.265625,2.9453125
19.975189999999998,-55.057663,-20.870435999999998,7.078125,-10.738281,1.1054688
17.848978,-45.82543,-21.206152,7.078125,-10.738281,1.1054688
17.625166,-26.130009,-29.655043,7.078125,-10.738281,1.1054688
17.625166,-26.130009,-29.655043,7.078125,-10.738281,1.1054688
15.163239,-9.120324,-41.684917,7.078125,-10.738281,1.1054688
9.008417999999999,-2.1821634999999997,-45.713528000000004,7.078125,-10.738281,1.1054688
9.008417999999999,-2.1821634999999997,-45.713528000000004,7.078125,-10.738281,1.1054688
19.303753,13.652510000000001,-53.323124,7.078125,-10.738281,1.1054688
19.303753,13.652510000000001,-53.323124,7.078125,-10.738281,1.1054688
21.709728,22.325210000000002,-56.512440000000005,11.328125,-12.152344,0.41796875
8.616748,29.039559999999998,-53.714794,11.328125,-12.152344,0.41796875
8.616748,29.039559999999998,-53.714794,11.328125,-12.152344,0.41796875
3.4690803999999997,36.593204,-59.701756,11.328125,-12.152344,0.41796875
3.4690803999999997,36.593204,-59.701756,11.328125,-12.152344,0.41796875
6.15482,40.95753,-74.92094399999999,11.328125,-12.152344,0.41796875
4.308374,42.020634,-90.19609,11.328125,-12.152344,0.41796875
4.308374,42.020634,-90.19609,11.328125,-12.152344,0.41796875
5.427432,44.706375,-104.01646,11.328125,-12.152344,0.41796875
5.427432,44.706375,-104.01646,11.328125,-12.152344,0.41796875
3.5809862999999997,46.273056,-113.64036000000002,11.328125,-12.152344,0.41796875
3.5809862999999997,46.273056,-113.64036000000002,12.785156,-11.84375,1.296875
-1.5107286,47.951645,-118.73207,12.785156,-11.84375,1.296875
-1.5666815,47.783787,-126.34167,12.785156,-11.84375,1.296875
-1.5666815,47.783787,-126.34167,12.785156,-11.84375,1.296875
0.5595291,45.20995,-134.06316999999999,12.785156,-11.84375,1.296875
-1.8464459999999998,42.803974,-140.72156999999999,12.785156,-11.84375,1.296875
-1.8464459999999998,42.803974,-140.72156999999999,12.785156,-11.84375,1.296875
-1.4547757,46.72068,-150.17761000000002,12.785156,-11.84375,1.296875
-1.4547757,46.72068,-150.17761000000002,12.785156,-11.84375,1.296875
-0.78334075,50.41357,-158.57054,12.785156,-11.84375,1.296875
1.8464459999999998,51.812393,-167.91468999999998,12.785156,-11.84375,1.296875
1.8464459999999998,51.812393,-167.91468999999998,12.785156,-11.84375,1.296875
2.7976456,53.043358,-176.13976,12.785156,-11.84375,1.296875
2.7976456,53.043358,-176.13976,12.785156,-11.84375,1.296875
3.5250332,57.29578000000001,-183.30173,12.785156,-11.84375,1.296875
1.1190583,63.282740000000004,-190.12798999999998,14.5859375,-14.027344,2.8671875
1.1190583,63.282740000000004,-190.12798999999998,14.5859375,-14.027344,2.8671875
-0.22381164,68.76613,-196.56258,14.5859375,-14.027344,2.8671875
5.539338,86.223434,-218.44016000000002,14.5859375,-14.027344,2.8671875
5.539338,86.223434,-218.44016000000002,14.5859375,-14.027344,2.8671875
5.707196700000001,94.33661,-222.63662999999997,14.5859375,-14.027344,2.8671875
5.707196700000001,94.33661,-222.63662999999997,14.5859375,-14.027344,2.8671875
5.707196700000001,94.33661,-222.63662999999997,13.6640625,-16.519531,3.0976562000000003
7.553642699999999,101.10691,-228.06406,13.6640625,-16.519531,3.0976562000000003
8.0012665,106.42243,-234.61055,13.6640625,-16.519531,3.0976562000000003
8.281031,112.07368000000001,-245.35352000000003,13.6640625,-16.519531,3.0976562000000003
8.281031,112.07368000000001,-245.35352000000003,13.6640625,-16.519531,3.0976562000000003
12.589405000000001,119.40351000000001,-253.46667000000002,13.6640625,-16.519531,3.0976562000000003
14.995379000000002,127.46073,-258.95007000000004,13.6640625,-16.519531,3.0976562000000003
14.995379000000002,127.46073,-258.95007000000004,13.6640625,-16.519531,3.0976562000000003
15.890626000000001,132.49649,-263.59415,13.6640625,-16.519531,3.0976562000000003
15.890626000000001,132.49649,-263.59415,13.6640625,-16.519531,3.0976562000000003
20.478765,141.72871,-270.0847,13.6640625,-16.519531,3.0976562000000003
20.478765,141.72871,-270.0847,13.6640625,-16.519531,3.0976562000000003
25.57048,154.09431,-280.0443,11.175781,-17.667969,3.5585937999999993
30.38243,165.45276,-283.06577000000004,11.175781,-17.667969,3.5585937999999993
30.38243,165.45276,-283.06577000000004,11.175781,-17.667969,3.5585937999999993
38.383697999999995,180.56004,-289.83606000000003,11.175781,-17.667969,3.5585937999999993
38.383697999999995,180.56004,-289.83606000000003,11.175781,-17.667969,3.5585937999999993
43.139694,192.70183,-289.22058,11.175781,-17.667969,3.5585937999999993
47.839737,205.7948,-288.717,11.175781,-17.667969,3.5585937999999993
47.839737,205.7948,-288.717,11.175781,-17.667969,3.5585937999999993
54.21836999999999,225.54617000000002,-298.78854,11.175781,-17.667969,3.5585937999999993
54.21836999999999,225.54617000000002,-298.78854,7.6914062,-18.933594,4.015625
63.226788,244.45827000000003,-298.3409,7.6914062,-18.933594,4.015625
62.779163,253.07501000000002,-294.59207000000004,7.6914062,-18.933594,4.015625
62.779163,253.07501000000002,-294.59207000000004,7.6914062,-18.933594,4.015625
67.42325600000001,260.74057,-297.72542999999996,7.6914062,-18.933594,4.015625
67.42325600000001,260.74057,-297.72542999999996,7.6914062,-18.933594,4.015625
79.341225,272.43472,-298.39687999999995,7.6914062,-18.933594,4.015625
88.90916999999999,287.37415,-292.46585,7.6914062,-18.933594,4.015625
88.90916999999999,287.37415,-292.46585,7.6914062,-18.933594,4.015625
95.79138,301.97784,-286.19912999999997,7.6914062,-18.933594,4.015625
95.79138,301.97784,-286.19912999999997,7.6914062,-18.933594,4.015625
104.40813,313.16843,-284.4646,1.484375,-19.007812,3.0585937999999997
130.59409,336.27698,-283.28958,1.484375,-19.007812,3.0585937999999997
130.59409,336.27698,-283.28958,1.484375,-19.007812,3.0585937999999997
146.59662,352.61523,-275.12045,1.484375,-19.007812,3.0585937999999997
146.59662,352.61523,-275.12045,1.484375,-19.007812,3.0585937999999997
144.07873999999998,354.34976,-266.2799,1.484375,-19.007812,3.0585937999999997
143.23946,351.2164,-260.18102999999996,1.484375,-19.007812,3.0585937999999997
143.23946,351.2164,-260.18102999999996,1.484375,-19.007812,3.0585937999999997
140.72156999999999,344.66992,-253.8024,1.484375,-19.007812,3.0585937999999997
140.72156999999999,344.66992,-253.8024,1.484375,-19.007812,3.0585937999999997
139.54655,337.452,-251.34047,1.484375,-19.007812,3.0585937999999997
139.54655,337.452,-251.34047,-3.1523437999999997,-14.753906,0.1875
143.35135,334.1508,-239.98202999999998,-3.1523437999999997,-14.753906,0.1875
142.00848,322.8483,-222.80449,-3.1523437999999997,-14.753906,0.1875
142.00848,322.8483,-222.80449,-3.1523437999999997,-14.753906,0.1875
142.62396,307.46124,-211.66986,-3.1523437999999997,-14.753906,0.1875
139.77036999999999,299.0683,-200.7031,-3.1523437999999997,-14.753906,0.1875
139.77036999999999,299.0683,-200.7031,-3.1523437999999997,-14.753906,0.1875
138.37155,288.717,-188.16963,-3.1523437999999997,-14.753906,0.1875
138.37155,288.717,-188.16963,-3.1523437999999997,-14.753906,0.1875
136.35724,271.31567,-170.65636999999998,-3.1523437999999997,-14.753906,0.1875
132.6084,252.79523999999998,-154.59788999999998,-3.1523437999999997,-14.753906,0.1875
132.6084,252.79523999999998,-154.59788999999998,-6.484375,-11.386719,-1.9960938000000001
128.24406000000002,231.701,-138.3156,-6.484375,-11.386719,-1.9960938000000001
128.24406000000002,231.701,-138.3156,-6.484375,-11.386719,-1.9960938000000001
124.55118,213.46036,-127.34881999999999,-6.484375,-11.386719,-1.9960938000000001
120.52257,189.56845,-113.24869,-6.484375,-11.386719,-1.9960938000000001
120.52257,189.56845,-113.24869,-6.484375,-11.386719,-1.9960938000000001
114.36774399999999,163.60631,-103.512886,-6.484375,-11.386719,-1.9960938000000001
114.36774399999999,163.60631,-103.512886,-6.484375,-11.386719,-1.9960938000000001
108.548645,137.02867,-93.04969,-6.484375,-11.386719,-1.9960938000000001
108.548645,137.02867,-93.04969,-8.203125,-6.9765625,-1.0390625
101.55453,110.22723400000001,-82.25078,-8.203125,-6.9765625,-1.0390625
96.96639,80.23647,-73.85784,-8.203125,-6.9765625,-1.0390625
96.96639,80.23647,-73.85784,-8.203125,-6.9765625,-1.0390625
91.65086,52.763596,-62.16368000000001,-8.203125,-6.9765625,-1.0390625
86.72700999999999,27.584784000000003,-51.58858,-8.203125,-6.9765625,-1.0390625
86.72700999999999,27.584784000000003,-51.58858,-8.203125,-6.9765625,-1.0390625
81.24361999999999,1.3988228,-43.027786,-8.203125,-6.9765625,-1.0390625
81.24361999999999,1.3988228,-43.027786,-8.203125,-6.9765625,-1.0390625
76.04,-23.556175,-38.047977,-8.203125,-6.9765625,-1.0390625
69.99709,-44.090893,-32.6765,-8.203125,-6.9765625,-1.0390625
69.99709,-44.090893,-32.6765,-7.9023438,-5.1796875,-1.4609375
63.674409999999995,-60.485096,-25.682385999999997,-7.9023438,-5.1796875,-1.4609375
63.674409999999995,-60.485096,-25.682385999999997,-7.9023438,-5.1796875,-1.4609375
57.967213,-74.30546600000001,-18.016835999999998,-7.9023438,-5.1796875,-1.4609375
51.812393,-87.56631,-10.351288,-7.9023438,-5.1796875,-1.4609375
51.812393,-87.56631,-10.351288,-7.9023438,-5.1796875,-1.4609375
46.049244,-99.76404000000001,-4.7000446,-7.9023438,-5.1796875,-1.4609375
46.049244,-99.76404000000001,-4.7000446,-7.9023438,-5.1796875,-1.4609375
39.05513,-108.66055,1.9583519,-7.9023438,-5.1796875,-1.4609375
39.05513,-108.66055,1.9583519,-7.9023438,-5.1796875,-1.4609375
32.788406,-115.71061999999999,9.344136,-6.171875,-3.953125,-2.9179687999999997
26.353820000000002,-120.634476,15.834674,-6.171875,-3.953125,-2.9179687999999997
26.353820000000002,-120.634476,15.834674,-6.171875,-3.953125,-2.9179687999999997
20.478765,-124.15951000000001,21.1502,-6.171875,-3.953125,-2.9179687999999997
15.051332,-125.89403999999999,26.409772999999998,-6.171875,-3.953125,-2.9179687999999997
15.051332,-125.89403999999999,26.409772999999998,-6.171875,-3.953125,-2.9179687999999997
10.407241,-124.383316,32.452686,-6.171875,-3.953125,-2.9179687999999997
10.407241,-124.383316,32.452686,-6.171875,-3.953125,-2.9179687999999997
6.0429144,-121.80949,38.4956,-6.171875,-3.953125,-2.9179687999999997
1.8464459999999998,-118.89993,44.482563,-6.171875,-3.953125,-2.9179687999999997
1.8464459999999998,-118.89993,44.482563,-6.171875,-3.953125,-2.9179687999999997
1.8464459999999998,-118.89993,44.482563,-4.375,-3.875,-2.6875
-2.7416925,-114.4237,50.245712,-4.375,-3.875,-2.6875
-7.721501400000001,-108.66055,56.232673999999996,-4.375,-3.875,-2.6875
-7.721501400000001,-108.66055,56.232673999999996,-4.375,-3.875,-2.6875
-12.30964,-102.50573,61.436294999999994,-4.375,-3.875,-2.6875
-16.170391,-97.134254,66.58396,-4.375,-3.875,-2.6875
-16.170391,-97.134254,66.58396,-4.375,-3.875,-2.6875
-19.023989,-91.65086,74.75309,-4.375,-3.875,-2.6875
-20.143047,-83.369835,81.85911,-4.375,-3.875,-2.6875
-20.143047,-83.369835,81.85911,-4.375,-3.875,-2.6875
-22.49307,-74.9769,85.99962,-4.375,-3.875,-2.6875
-22.49307,-74.9769,85.99962,-3.7265625,-5.2148438,-1.5742188
-26.689536999999998,-69.2697,92.54611,-3.7265625,-5.2148438,-1.5742188
-26.689536999999998,-69.2697,92.54611,-3.7265625,-5.2148438,-1.5742188
-30.214571000000003,-64.01013,95.62352,-3.7265625,-5.2148438,-1.5742188
-34.07532,-58.414837,96.51876999999999,-3.7265625,-5.2148438,-1.5742188
-34.07532,-58.414837,96.51876999999999,-3.7265625,-5.2148438,-1.5742188
-36.593204,-53.8267,103.736694,-3.7265625,-5.2148438,-1.5742188
-36.593204,-53.8267,103.736694,-3.7265625,-5.2148438,-1.5742188
-39.61466,-48.734984999999995,112.01772,-3.7265625,-5.2148438,-1.5742188
-44.03494,-44.03494,116.15823999999999,-3.7265625,-5.2148438,-1.5742188
-44.03494,-44.03494,116.15823999999999,-3.4570312000000007,-5.828125,-0.65625
-48.84689,-42.132540000000006,120.18685,-3.4570312000000007,-5.828125,-0.65625
-48.84689,-42.132540000000006,120.18685,-3.4570312000000007,-5.828125,-0.65625
-52.707640000000005,-42.020634,123.65593,-3.4570312000000007,-5.828125,-0.65625
-55.89695699999999,-41.51706,128.46788,-3.4570312000000007,-5.828125,-0.65625
-55.89695699999999,-41.51706,128.46788,-3.4570312000000007,-5.828125,-0.65625
-61.604153000000004,-40.509907,142.17635,-3.4570312000000007,-5.828125,-0.65625
-61.604153000000004,-40.509907,142.17635,-3.4570312000000007,-5.828125,-0.65625
-67.75896999999999,-41.628963,147.21211,-3.4570312000000007,-5.828125,-0.65625
-74.58523000000001,-45.99329,148.55498,-3.4570312000000007,-5.828125,-0.65625
-74.58523000000001,-45.99329,148.55498,-3.4570312000000007,-5.828125,-0.65625
-74.41736999999999,-50.805240000000005,143.74303,-3.4570312000000007,-5.828125,-0.65625
-74.41736999999999,-50.805240000000005,143.74303,-2.7695312000000003,-7.0585938,0.0703125
-79.62099,-55.7291,156.836,-2.7695312000000003,-7.0585938,0.0703125
-87.95798,-61.436294999999994,168.13849,-2.7695312000000003,-7.0585938,0.0703125
-87.95798,-61.436294999999994,168.13849,-2.7695312000000003,-7.0585938,0.0703125
-92.88183000000001,-65.856575,166.29205,-2.7695312000000003,-7.0585938,0.0703125
-92.88183000000001,-65.856575,166.29205,-2.7695312000000003,-7.0585938,0.0703125
-95.45566600000001,-72.68283000000001,177.65048000000002,-2.7695312000000003,-7.0585938,0.0703125
-102.11406,-81.85911,184.58865,-2.7695312000000003,-7.0585938,0.0703125
-102.11406,-81.85911,184.58865,-2.7695312000000003,-7.0585938,0.0703125
-102.11406,-81.85911,184.58865,-2.6523437999999997,-8.96875,0.76171875
-111.4582,-90.97943000000001,185.31604,-2.6523437999999997,-8.96875,0.76171875
-121.36186000000001,-102.84144599999999,189.00893,-2.6523437999999997,-8.96875,0.76171875
-120.29876000000002,-112.68916000000002,199.75189,-2.6523437999999997,-8.96875,0.76171875
-120.29876000000002,-112.68916000000002,199.75189,-2.6523437999999997,-8.96875,0.76171875
-123.76783999999999,-122.816635,206.41028,-2.6523437999999997,-8.96875,0.76171875
-123.76783999999999,-122.816635,206.41028,-2.6523437999999997,-8.96875,0.76171875
-133.72745,-133.00006000000002,204.67575,-2.6523437999999997,-8.96875,0.76171875
-132.55244,-143.35135,205.01146,-2.6523437999999997,-8.96875,0.76171875
-132.55244,-143.35135,205.01146,-2.6523437999999997,-8.96875,0.76171875
-134.11913,-154.8217,211.39009,-2.6523437999999997,-8.96875,0.76171875
-134.11913,-154.8217,211.39009,-2.6523437999999997,-8.96875,0.76171875
-131.6572,-162.6551,214.80322,-2.6523437999999997,-8.96875,0.76171875
-126.22977,-165.3968,218.1604,0.14453125,-11.464844,2.7148437999999997
-126.22977,-165.3968,218.1604,0.14453125,-11.464844,2.7148437999999997
-125.89403999999999,-168.08253,217.43301,0.14453125,-11.464844,2.7148437999999997
-125.89403999999999,-168.08253,217.43301,0.14453125,-11.464844,2.7148437999999997
-120.18685,-173.0064,221.90923999999998,0.14453125,-11.464844,2.7148437999999997
-113.80821999999999,-177.14691000000002,222.97235,0.14453125,-11.464844,2.7148437999999997
-113.80821999999999,-177.14691000000002,222.97235,0.14453125,-11.464844,2.7148437999999997
-114.14393600000001,-181.84695,226.21762,0.14453125,-11.464844,2.7148437999999997
-114.14393600000001,-181.84695,226.21762,3.015625,-14.9453125,4.5546875
-111.34629,-182.91006000000002,229.46287999999998,3.015625,-14.9453125,4.5546875
-103.68074,-177.81833999999998,227.0569,3.015625,-14.9453125,4.5546875
-103.68074,-177.81833999999998,227.0569,3.015625,-14.9453125,4.5546875
-103.56883,-174.62903,224.48307999999997,3.015625,-14.9453125,4.5546875
-103.56883,-174.62903,224.48307999999997,3.015625,-14.9453125,4.5546875
-98.029495,-171.77544,225.15451000000002,3.015625,-14.9453125,4.5546875
-93.88898499999999,-162.93488,225.21046,3.015625,-14.9453125,4.5546875
-93.88898499999999,-162.93488,225.21046,3.015625,-14.9453125,4.5546875
-90.36395,-155.21338,223.81165,3.015625,-14.9453125,4.5546875
-90.36395,-155.21338,223.81165,3.015625,-14.9453125,4.5546875
-90.36395,-155.21338,223.81165,6.5039062,-16.324219,4.3242188
-78.11026,-138.70726000000002,219.89493,6.5039062,-16.324219,4.3242188
-78.11026,-138.70726000000002,219.89493,6.5039062,-16.324219,4.3242188
-74.025696,-132.66435,220.95803999999998,6.5039062,-16.324219,4.3242188
-74.025696,-132.66435,220.95803999999998,6.5039062,-16.324219,4.3242188
-69.21375,-125.50237,221.57352000000003,6.5039062,-16.324219,4.3242188
-65.57681,-117.61301399999999,220.23065,6.5039062,-16.324219,4.3242188
-65.57681,-117.61301399999999,220.23065,6.5039062,-16.324219,4.3242188
-62.27559,-110.17128000000001,218.21635,6.5039062,-16.324219,4.3242188
-62.27559,-110.17128000000001,218.21635,6.5039062,-16.324219,4.3242188
-57.799355000000006,-104.85575,215.36275,6.5039062,-16.324219,4.3242188
-57.799355000000006,-104.85575,215.36275,7.765625,-15.410156,4.8984375
-53.043358,-100.15571,212.78891000000002,7.765625,-15.410156,4.8984375
-53.043358,-100.15571,212.78891000000002,7.765625,-15.410156,4.8984375
-53.043358,-100.15571,212.78891000000002,7.765625,-15.410156,4.8984375
-46.105198,-90.97943000000001,207.97696000000002,7.765625,-15.410156,4.8984375
-46.105198,-90.97943000000001,207.97696000000002,7.765625,-15.410156,4.8984375
-41.90873,-84.99247,205.34718,7.765625,-15.410156,4.8984375
-39.22299,-81.299576,201.76619,7.765625,-15.410156,4.8984375
-39.22299,-81.299576,201.76619,7.765625,-15.410156,4.8984375
-36.92892,-78.949554,198.63283,7.765625,-15.410156,4.8984375
-36.92892,-78.949554,198.63283,7.5351562,-15.871094,4.3632812
-35.082474,-76.54358,196.33876,7.5351562,-15.871094,4.3632812
-33.795559999999995,-72.51496999999999,194.43636,7.5351562,-15.871094,4.3632812
-33.795559999999995,-72.51496999999999,194.43636,7.5351562,-15.871094,4.3632812
-34.5789,-68.26255,190.96729,7.5351562,-15.871094,4.3632812
-34.5789,-68.26255,190.96729,7.5351562,-15.871094,4.3632812
-34.07532,-62.66726,187.16248000000002,7.5351562,-15.871094,4.3632812
-33.739605,-59.030319999999996,182.57433999999998,7.5351562,-15.871094,4.3632812
-33.739605,-59.030319999999996,182.57433999999998,7.5351562,-15.871094,4.3632812
-32.6765,-56.12076999999999,177.31476999999998,7.5351562,-15.871094,4.3632812
-32.6765,-56.12076999999999,177.31476999999998,7.5351562,-15.871094,4.3632812
-30.046713,-52.148113,172.27900000000002,7.9570312,-14.21875,4.2851562
-27.752644,-47.000443,168.75398,7.9570312,-14.21875,4.2851562
-27.752644,-47.000443,168.75398,7.9570312,-14.21875,4.2851562
-26.353820000000002,-41.628963,163.83012,7.9570312,-14.21875,4.2851562
-26.353820000000002,-41.628963,163.83012,7.9570312,-14.21875,4.2851562
-23.500221,-38.215835999999996,158.90627,7.9570312,-14.21875,4.2851562
-20.702576,-36.145579999999995,154.59788999999998,7.9570312,-14.21875,4.2851562
-20.702576,-36.145579999999995,154.59788999999998,7.9570312,-14.21875,4.2851562
-18.520412,-34.5789,150.68118,7.9570312,-14.21875,4.2851562
-18.520412,-34.5789,150.68118,7.9570312,-14.21875,4.2851562
-16.002533,-33.403890000000004,145.81328,7.9570312,-14.21875,4.2851562
-13.260839,-30.774101,143.35135,8.417969,-13.949219,4.6289062
-13.260839,-30.774101,143.35135,8.417969,-13.949219,4.6289062
-14.323945000000002,-28.144314,138.03583,8.417969,-13.949219,4.6289062
-14.323945000000002,-28.144314,138.03583,8.417969,-13.949219,4.6289062
-15.051332,-27.360972999999998,134.00722,8.417969,-13.949219,4.6289062
-14.603709,-25.402620000000002,128.97145,8.417969,-13.949219,4.6289062
-14.603709,-25.402620000000002,128.97145,8.417969,-13.949219,4.6289062
-12.085828999999999,-22.71688,124.9988,8.417969,-13.949219,4.6289062
-12.085828999999999,-22.71688,124.9988,8.417969,-13.949219,4.6289062
-11.973923,-23.612126999999997,120.52257,8.417969,-13.949219,4.6289062
-15.498956,-26.521679,112.80106,8.417969,-13.949219,4.6289062
-15.498956,-26.521679,112.80106,8.9921875,-12.2265625,2.6367187999999997
-19.191848999999998,-31.165771000000003,102.953354,8.9921875,-12.2265625,2.6367187999999997
-19.191848999999998,-31.165771000000003,102.953354,8.9921875,-12.2265625,2.6367187999999997
-19.639471,-34.97057,90.643715,8.9921875,-12.2265625,2.6367187999999997
-14.156085999999998,-42.69207,74.1376,8.9921875,-12.2265625,2.6367187999999997
-14.156085999999998,-42.69207,74.1376,8.9921875,-12.2265625,2.6367187999999997
-10.96677,-42.3004,59.086273,8.9921875,-12.2265625,2.6367187999999997
-10.96677,-42.3004,59.086273,8.9921875,-12.2265625,2.6367187999999997
-8.728653999999999,-29.43123,36.481297,8.9921875,-12.2265625,2.6367187999999997
-8.728653999999999,-29.43123,36.481297,15.738281,-12.457031,7.0429688
-6.2107730000000005,-13.484651999999999,16.002533,15.738281,-12.457031,7.0429688
-0.83929366,-3.3571746,-1.1190583,15.738281,-12.457031,7.0429688
-0.83929366,-3.3571746,-1.1190583,15.738281,-12.457031,7.0429688
3.6928919999999996,14.156085999999998,-15.387051000000001,15.738281,-12.457031,7.0429688
4.0286093,29.710995,-24.395468,15.738281,-12.457031,7.0429688
4.0286093,29.710995,-24.395468,15.738281,-12.457031,7.0429688
1.9583519,41.293246999999994,-26.91335,15.738281,-12.457031,7.0429688
1.9583519,41.293246999999994,-26.91335,15.738281,-12.457031,7.0429688
1.7904931,57.855309999999996,-29.878853000000003,15.738281,-12.457031,7.0429688
1.286917,70.78043000000001,-33.739605,15.738281,-12.457031,7.0429688
1.286917,70.78043000000001,-33.739605,17.726562,-10.734375,3.2109375
3.4131273999999996,78.8936,-40.062283,17.726562,-10.734375,3.2109375
3.4131273999999996,78.8936,-40.062283,17.726562,-10.734375,3.2109375
7.441737,84.32104,-47.504020000000004,17.726562,-10.734375,3.2109375
9.344136,87.06273,-53.490981999999995,17.726562,-10.734375,3.2109375
9.344136,87.06273,-53.490981999999995,17.726562,-10.734375,3.2109375
6.826255000000001,85.88772,-58.023167,17.726562,-10.734375,3.2109375
6.826255000000001,85.88772,-58.023167,17.726562,-10.734375,3.2109375
0.72738785,78.50193,-63.170834,17.726562,-10.734375,3.2109375
0.72738785,78.50193,-63.170834,17.726562,-10.734375,3.2109375
-3.8607507000000005,66.08038,-69.38161,7.84375,-9.199219,2.1015625
-8.560794999999999,51.029053000000005,-74.86499,7.84375,-9.199219,2.1015625
-8.560794999999999,51.029053000000005,-74.86499,7.84375,-9.199219,2.1015625
-13.092981,39.39085,-79.732895,7.84375,-9.199219,2.1015625
-17.457307999999998,31.053865000000002,-84.76866,7.84375,-9.199219,2.1015625
-17.457307999999998,31.053865000000002,-84.76866,7.84375,-9.199219,2.1015625
-17.904932000000002,21.206152,-89.13299,7.84375,-9.199219,2.1015625
-17.904932000000002,21.206152,-89.13299,7.84375,-9.199219,2.1015625
-17.345402,12.141782000000001,-92.37825,7.84375,-9.199219,2.1015625
-15.722767999999999,3.7488449,-95.847336,7.84375,-9.199219,2.1015625
-15.722767999999999,3.7488449,-95.847336,6.5039062,-11.808594,4.1328125
-12.365592999999999,-5.427432,-99.81999,6.5039062,-11.808594,4.1328125
-12.365592999999999,-5.427432,-99.81999,6.5039062,-11.808594,4.1328125
-9.903665,-14.603709,-105.303375,6.5039062,-11.808594,4.1328125
-9.903665,-14.603709,-105.303375,6.5039062,-11.808594,4.1328125
-8.952466000000001,-22.71688,-112.5213,6.5039062,-11.808594,4.1328125
-7.553642699999999,-27.47288,-120.69043,6.5039062,-11.808594,4.1328125
-7.553642699999999,-27.47288,-120.69043,6.5039062,-11.808594,4.1328125
-8.057219,-29.039559999999998,-128.35596999999999,6.5039062,-11.808594,4.1328125
-8.057219,-29.039559999999998,-128.35596999999999,6.5039062,-11.808594,4.1328125
-9.567947,-26.801443,-135.29413,6.5039062,-11.808594,4.1328125
-9.567947,-26.801443,-135.29413,9.4921875,-12.4921875,3.25
-10.854864,-21.318057999999997,-142.84778,9.4921875,-12.4921875,3.25
-10.854864,-21.318057999999997,-142.84778,9.4921875,-12.4921875,3.25
-10.854864,-21.318057999999997,-142.84778,9.4921875,-12.4921875,3.25
-12.197734,-1.9023990000000002,-158.90627,9.4921875,-12.4921875,3.25
-12.645357,11.470346000000001,-165.84441999999999,9.4921875,-12.4921875,3.25
-12.645357,11.470346000000001,-165.84441999999999,9.4921875,-12.4921875,3.25
-10.854864,27.137161,-173.17426,9.4921875,-12.4921875,3.25
-10.854864,27.137161,-173.17426,9.4921875,-12.4921875,3.25
-9.008417999999999,42.971835999999996,-179.38503,9.4921875,-12.4921875,3.25
-7.553642699999999,57.183871999999994,-184.47675,9.4921875,-12.4921875,3.25
-7.553642699999999,57.183871999999994,-184.47675,11.214844,-13.988281,3.25
-5.7631497000000005,71.06019599999999,-190.35179,11.214844,-13.988281,3.25
-5.7631497000000005,71.06019599999999,-190.35179,11.214844,-13.988281,3.25
-2.3500223,81.7472,-195.55542,11.214844,-13.988281,3.25
0.72738785,90.53181,-200.98285,11.214844,-13.988281,3.25
0.72738785,90.53181,-200.98285,11.214844,-13.988281,3.25
1.3428699,97.35806,-205.73885,11.214844,-13.988281,3.25
1.3428699,97.35806,-205.73885,11.214844,-13.988281,3.25
2.7416925,102.058105,-209.26389,11.214844,-13.988281,3.25
4.9798089999999995,105.86291000000001,-213.74011000000002,11.214844,-13.988281,3.25
4.9798089999999995,105.86291000000001,-213.74011000000002,11.214844,-13.988281,3.25
6.602442999999999,111.34629,-216.14609,11.214844,-13.988281,3.25
6.602442999999999,111.34629,-216.14609,9.527344,-15.59375,2.1015625
8.504842,114.75941499999999,-217.88062999999997,9.527344,-15.59375,2.1015625
10.687006,118.11658999999999,-219.39136000000002,9.527344,-15.59375,2.1015625
10.687006,118.11658999999999,-219.39136000000002,9.527344,-15.59375,2.1015625
12.589405000000001,120.29876000000002,-221.34972000000002,9.527344,-15.59375,2.1015625
12.589405000000001,120.29876000000002,-221.34972000000002,9.527344,-15.59375,2.1015625
13.428699,122.64878,-224.20331000000002,9.527344,-15.59375,2.1015625
16.226343,121.75353,-224.59499,9.527344,-15.59375,2.1015625
16.226343,121.75353,-224.59499,9.527344,-15.59375,2.1015625
16.226343,121.75353,-224.59499,7.9179688,-16.476562,2.9453125
19.919235,117.892784,-224.31522,7.9179688,-16.476562,2.9453125
23.891893,115.48681,-225.15451000000002,7.9179688,-16.476562,2.9453125
26.409772999999998,110.56295,-226.21762,7.9179688,-16.476562,2.9453125
26.409772999999998,110.56295,-226.21762,7.9179688,-16.476562,2.9453125
27.920502000000003,104.40813,-225.82594,7.9179688,-16.476562,2.9453125
27.920502000000003,104.40813,-225.82594,7.9179688,-16.476562,2.9453125
29.710995,99.092606,-225.54617000000002,7.9179688,-16.476562,2.9453125
32.844357,94.89613,-224.9307,7.9179688,-16.476562,2.9453125
32.844357,94.89613,-224.9307,7.9179688,-16.476562,2.9453125
34.690804,92.3223,-226.88905,7.9179688,-16.476562,2.9453125
34.690804,92.3223,-226.88905,6.4257812,-16.324219,3.75
33.907463,88.68536,-228.9593,6.4257812,-16.324219,3.75
34.522945,85.44009399999999,-227.95215,6.4257812,-16.324219,3.75
34.522945,85.44009399999999,-227.95215,6.4257812,-16.324219,3.75
34.746758,84.153175,-227.16881,6.4257812,-16.324219,3.75
34.746758,84.153175,-227.16881,6.4257812,-16.324219,3.75
34.690804,86.78296999999999,-228.23192000000003,6.4257812,-16.324219,3.75
34.690804,86.78296999999999,-228.23192000000003,6.4257812,-16.324219,3.75
34.63485,90.97943000000001,-228.06406,6.4257812,-16.324219,3.75
34.690804,94.11279,-227.84026,6.4257812,-16.324219,3.75
34.690804,94.11279,-227.84026,5.890625,-14.8671875,2.4453125
34.80271,96.01519,-227.56049,5.890625,-14.8671875,2.4453125
36.033671999999996,98.812836,-226.60927999999998,5.890625,-14.8671875,2.4453125
36.033671999999996,98.812836,-226.60927999999998,5.890625,-14.8671875,2.4453125
37.71226,102.78549,-225.76998999999998,5.890625,-14.8671875,2.4453125
37.71226,102.78549,-225.76998999999998,5.890625,-14.8671875,2.4453125
40.17419,107.31768000000001,-223.69974,5.890625,-14.8671875,2.4453125
41.684917,111.06653,-221.06995,5.890625,-14.8671875,2.4453125
41.684917,111.06653,-221.06995,5.890625,-14.8671875,2.4453125
44.650420000000004,112.91297,-218.60802,5.890625,-14.8671875,2.4453125
44.650420000000004,112.91297,-218.60802,5.890625,-14.8671875,2.4453125
44.650420000000004,112.91297,-218.60802,3.0546875,-14.40625,2.984375
47.392113,113.41655,-215.64252000000002,3.0546875,-14.40625,2.984375
47.392113,113.41655,-215.64252000000002,3.0546875,-14.40625,2.984375
49.57428,114.14393600000001,-211.55795,3.0546875,-14.40625,2.984375
49.57428,114.14393600000001,-211.55795,3.0546875,-14.40625,2.984375
51.868347,113.976074,-205.96266,3.0546875,-14.40625,2.984375
53.546935999999995,113.13678,-200.9269,3.0546875,-14.40625,2.984375
53.546935999999995,113.13678,-200.9269,3.0546875,-14.40625,2.984375
56.12076999999999,111.5701,-197.06615,3.0546875,-14.40625,2.984375
56.12076999999999,111.5701,-197.06615,3.0546875,-14.40625,2.984375
57.071968000000005,109.947464,-191.86253,3.0546875,-14.40625,2.984375
58.079119999999996,108.6046,-189.06488000000002,0.02734375,-12.1484375,1.8710938000000001
58.079119999999996,108.6046,-189.06488000000002,0.02734375,-12.1484375,1.8710938000000001
58.302932999999996,105.47124,-186.82676999999998,0.02734375,-12.1484375,1.8710938000000001
58.302932999999996,105.47124,-186.82676999999998,0.02734375,-12.1484375,1.8710938000000001
56.960064,100.82714,-182.12672,0.02734375,-12.1484375,1.8710938000000001
56.960064,100.82714,-182.12672,0.02734375,-12.1484375,1.8710938000000001
54.66599300000001,96.350914,-174.40521,0.02734375,-12.1484375,1.8710938000000001
56.288628,93.1616,-168.41826,0.02734375,-12.1484375,1.8710938000000001
56.288628,93.1616,-168.41826,0.02734375,-12.1484375,1.8710938000000001
59.25413,90.4199,-166.40395,0.02734375,-12.1484375,1.8710938000000001
59.25413,90.4199,-166.40395,-1.65625,-9.894531,1.5664062
57.575542000000006,87.790115,-159.07413,-1.65625,-9.894531,1.5664062
57.743404000000005,85.552,-151.7443,-1.65625,-9.894531,1.5664062
57.743404000000005,85.552,-151.7443,-1.65625,-9.894531,1.5664062
57.855309999999996,81.91506,-145.14185,-1.65625,-9.894531,1.5664062
57.855309999999996,81.91506,-145.14185,-1.65625,-9.894531,1.5664062
57.071968000000005,80.516235,-136.97271999999998,-1.65625,-9.894531,1.5664062
56.512440000000005,77.942406,-129.9786,-1.65625,-9.894531,1.5664062
56.512440000000005,77.942406,-129.9786,-1.65625,-9.894531,1.5664062
57.016014,73.80189,-125.05475600000001,-1.65625,-9.894531,1.5664062
57.016014,73.80189,-125.05475600000001,-1.65625,-9.894531,1.5664062
55.225519999999996,67.3673,-117.44516000000002,-3.0351562000000003,-7.203125,0.68359375
52.09216,61.883919999999996,-106.98196399999999,-3.0351562000000003,-7.203125,0.68359375
52.09216,61.883919999999996,-106.98196399999999,-3.0351562000000003,-7.203125,0.68359375
49.46237,54.274322999999995,-96.239006,-3.0351562000000003,-7.203125,0.68359375
49.46237,54.274322999999995,-96.239006,-3.0351562000000003,-7.203125,0.68359375
47.839737,46.105198,-87.62225,-3.0351562000000003,-7.203125,0.68359375
44.37066,37.432495,-79.78885,-3.0351562000000003,-7.203125,0.68359375
44.37066,37.432495,-79.78885,-3.0351562000000003,-7.203125,0.68359375
42.971835999999996,27.752644,-72.45901500000001,-3.0351562000000003,-7.203125,0.68359375
42.971835999999996,27.752644,-72.45901500000001,-3.0351562000000003,-7.203125,0.68359375
39.334896,16.170391,-65.073235,-3.0351562000000003,-7.203125,0.68359375
35.194379999999995,4.5881386,-56.34458000000001,-4.6835938,-5.2148438,0.0703125
35.194379999999995,4.5881386,-56.34458000000001,-4.6835938,-5.2148438,0.0703125
33.739605,-7.9453130000000005,-47.839737,-4.6835938,-5.2148438,0.0703125
33.739605,-7.9453130000000005,-47.839737,-4.6835938,-5.2148438,0.0703125
30.102665000000002,-16.50611,-40.95753,-4.6835938,-5.2148438,0.0703125
26.353820000000002,-23.668081,-36.31344,-4.6835938,-5.2148438,0.0703125
26.353820000000002,-23.668081,-36.31344,-4.6835938,-5.2148438,0.0703125
26.521679,-28.759796,-32.11697,-4.6835938,-5.2148438,0.0703125
26.521679,-28.759796,-32.11697,-4.6835938,-5.2148438,0.0703125
26.465727,-30.38243,-23.388317,-4.6835938,-5.2148438,0.0703125
23.276411,-30.830053000000003,-14.267992000000001,-4.2226562,-4.3007812,0.30078125
23.276411,-30.830053000000003,-14.267992000000001,-4.2226562,-4.3007812,0.30078125
20.926388,-32.788406,-6.7143493,-4.2226562,-4.3007812,0.30078125
20.926388,-32.788406,-6.7143493,-4.2226562,-4.3007812,0.30078125
18.240648,-34.690804,-0.50357616,-4.2226562,-4.3007812,0.30078125
17.28945,-34.522945,4.42028,-4.2226562,-4.3007812,0.30078125
17.28945,-34.522945,4.42028,-4.2226562,-4.3007812,0.30078125
15.890626000000001,-32.452686,8.281031,-4.2226562,-4.3007812,0.30078125
15.890626000000001,-32.452686,8.281031,-4.2226562,-4.3007812,0.30078125
13.372745499999999,-31.445535999999997,14.156085999999998,-4.2226562,-4.3007812,0.30078125
12.141782000000001,-29.543136999999998,21.262106,-3.8359375,-3.0703125,0.4921875
12.141782000000001,-29.543136999999998,21.262106,-3.8359375,-3.0703125,0.4921875
12.253687,-26.465727,26.969303000000004,-3.8359375,-3.0703125,0.4921875
12.253687,-26.465727,26.969303000000004,-3.8359375,-3.0703125,0.4921875
11.190582000000001,-22.437117,32.844357,-3.8359375,-3.0703125,0.4921875
11.190582000000001,-22.437117,32.844357,-3.8359375,-3.0703125,0.4921875
10.127477,-18.296602,38.719414,-3.8359375,-3.0703125,0.4921875
8.281031,-15.275145000000002,45.43376,-3.8359375,-3.0703125,0.4921875
8.281031,-15.275145000000002,45.43376,-3.8359375,-3.0703125,0.4921875
5.3714794999999995,-13.148933,52.931454,-3.8359375,-3.0703125,0.4921875
5.3714794999999995,-13.148933,52.931454,-4.1132812,-3.0703125,0.37890625
3.5809862999999997,-12.701310000000001,58.86246,-4.1132812,-3.0703125,0.37890625
3.5809862999999997,-12.701310000000001,58.86246,-4.1132812,-3.0703125,0.37890625
3.5809862999999997,-12.701310000000001,58.86246,-4.1132812,-3.0703125,0.37890625
-1.4547757,-10.463194,69.94114,-4.1132812,-3.0703125,0.37890625
-4.42028,-11.134628999999999,76.43167,-4.1132812,-3.0703125,0.37890625
-4.42028,-11.134628999999999,76.43167,-4.1132812,-3.0703125,0.37890625
-8.616748,-13.092981,82.64245,-4.1132812,-3.0703125,0.37890625
-8.616748,-13.092981,82.64245,-4.1132812,-3.0703125,0.37890625
-11.91797,-15.722767999999999,88.5175,-4.1132812,-3.0703125,0.37890625
-11.91797,-15.722767999999999,88.5175,-4.1132812,-3.0703125,0.37890625
-15.275145000000002,-16.618013,93.83303000000001,-3.5742187999999993,-3.8789062000000007,0.30078125
-20.254953,-17.177544,99.03665,-3.5742187999999993,-3.8789062000000007,0.30078125
-20.254953,-17.177544,99.03665,-3.5742187999999993,-3.8789062000000007,0.30078125
-25.178810000000002,-18.128742000000003,104.01646,-3.5742187999999993,-3.8789062000000007,0.30078125
-28.256220000000003,-20.199001000000003,108.77245,-3.5742187999999993,-3.8789062000000007,0.30078125
-28.256220000000003,-20.199001000000003,108.77245,-3.5742187999999993,-3.8789062000000007,0.30078125
-33.180077000000004,-23.44427,113.52845,-3.5742187999999993,-3.8789062000000007,0.30078125
-33.180077000000004,-23.44427,113.52845,-3.5742187999999993,-3.8789062000000007,0.30078125
-37.096779999999995,-27.47288,119.23565,-3.5742187999999993,-3.8789062000000007,0.30078125
-37.096779999999995,-27.47288,119.23565,-3.5742187999999993,-3.8789062000000007,0.30078125
-38.943226,-31.837206,124.663086,-3.3046875,-5.140625,1.21875
-41.51706,-36.984875,126.9012,-3.3046875,-5.140625,1.21875
-41.51706,-36.984875,126.9012,-3.3046875,-5.140625,1.21875
-45.04209,-41.3492,131.43338,-3.3046875,-5.140625,1.21875
-45.04209,-41.3492,131.43338,-3.3046875,-5.140625,1.21875
-48.231407,-46.384964000000004,137.86796999999999,-3.3046875,-5.140625,1.21875
-52.09216,-55.169567,146.48471,-3.3046875,-5.140625,1.21875
-52.09216,-55.169567,146.48471,-3.3046875,-5.140625,1.21875
-54.94576,-62.723213,152.08,-3.3046875,-5.140625,1.21875
-54.94576,-62.723213,152.08,-3.3046875,-5.140625,1.21875
-57.463640000000005,-67.87088,156.9479,-3.3046875,-5.140625,1.21875
-57.463640000000005,-67.87088,156.9479,-2.2695312000000003,-7.359375,1.3359375
-61.548203,-69.88518499999999,162.43129,-2.2695312000000003,-7.359375,1.3359375
-61.548203,-69.88518499999999,162.43129,-2.2695312000000003,-7.359375,1.3359375
-61.548203,-69.88518499999999,162.43129,-2.2695312000000003,-7.359375,1.3359375
-67.70302,-81.85911,169.2016,-2.2695312000000003,-7.359375,1.3359375
-72.1233,-89.077034,175.0207,-2.2695312000000003,-7.359375,1.3359375
-72.1233,-89.077034,175.0207,-2.2695312000000003,-7.359375,1.3359375
-75.48048,-96.350914,181.73505,-2.2695312000000003,-7.359375,1.3359375
-75.48048,-96.350914,181.73505,-2.2695312000000003,-7.359375,1.3359375
-79.28527,-101.66643499999999,183.97316,-2.2695312000000003,-7.359375,1.3359375
-76.15191,-103.17716,186.71486000000002,-2.2695312000000003,-7.359375,1.3359375
-76.15191,-103.17716,186.71486000000002,-0.66015625,-9.734375,1.296875
-78.83765,-106.8141,190.29585,-0.66015625,-9.734375,1.296875
-78.83765,-106.8141,190.29585,-0.66015625,-9.734375,1.296875
-82.25078,-111.17843,195.83518999999998,-0.66015625,-9.734375,1.296875
-82.58649399999999,-114.36774399999999,197.51378,-0.66015625,-9.734375,1.296875
-82.58649399999999,-114.36774399999999,197.51378,-0.66015625,-9.734375,1.296875
-82.58649399999999,-117.44516000000002,195.94708,-0.66015625,-9.734375,1.296875
-82.58649399999999,-117.44516000000002,195.94708,-0.66015625,-9.734375,1.296875
-84.09722,-117.389206,197.9614,-0.66015625,-9.734375,1.296875
-83.92936999999999,-120.69043,201.15071,-0.66015625,-9.734375,1.296875
-83.92936999999999,-120.69043,201.15071,-0.66015625,-9.734375,1.296875
-83.92936999999999,-120.69043,201.15071,0.52734375,-11.6484375,1.9882811999999999
-82.41863000000001,-127.51668000000001,205.34718,0.52734375,-11.6484375,1.9882811999999999
-82.41863000000001,-127.51668000000001,205.34718,0.52734375,-11.6484375,1.9882811999999999
-77.32692,-126.453575,212.90082,0.52734375,-11.6484375,1.9882811999999999
-77.32692,-126.453575,212.90082,0.52734375,-11.6484375,1.9882811999999999
-74.809044,-124.94285,213.85202,0.52734375,-11.6484375,1.9882811999999999
-74.809044,-124.94285,213.85202,0.52734375,-11.6484375,1.9882811999999999
-70.78043000000001,-125.44643,212.28534,0.52734375,-11.6484375,1.9882811999999999
-66.75182,-125.95,214.13179,0.52734375,-11.6484375,1.9882811999999999
-66.75182,-125.95,214.13179,0.52734375,-11.6484375,1.9882811999999999
-66.75182,-125.95,214.13179,2.59375,-15.332031,2.140625
-63.002975,-127.18096000000001,218.60802,2.59375,-15.332031,2.140625
-63.002975,-127.18096000000001,218.60802,2.59375,-15.332031,2.140625
-57.407683999999996,-127.236916,225.54617000000002,2.59375,-15.332031,2.140625
-57.407683999999996,-127.236916,225.54617000000002,2.59375,-15.332031,2.140625
-55.505287,-131.04172,227.33667000000003,2.59375,-15.332031,2.140625
-55.505287,-131.04172,227.33667000000003,2.59375,-15.332031,2.140625
-51.812393,-137.02867,227.33667000000003,2.59375,-15.332031,2.140625
-47.28021,-141.393,228.12001,2.59375,-15.332031,2.140625
-47.28021,-141.393,228.12001,2.59375,-15.332031,2.140625
